ODR: 104, G_FS: 245, A_FS: 2
GX; GY; GZ; AX; AY; AZ
2968; -3086; -3086; 353; -15153; 2715
4891; -18418; 2615; 595; -15105; 1732
1741; -26543; 10173; 628; -16140; 1814
4059; -11803; -880; 629; -16156; 2008
617; -471; -709; 645; -16159; 2006
623; -486; -705; 654; -16185; 2007
624; -497; -700; 641; -16170; 2008
633; -488; -698; 640; -16174; 1969
625; -490; -699; 639; -16178; 1974
618; -493; -707; 645; -16166; 1986
625; -499; -706; 647; -16174; 1983
627; -493; -695; 649; -16185; 1981
635; -494; -693; 634; -16184; 1976
634; -495; -701; 638; -16169; 1986
621; -491; -698; 654; -16176; 1981
616; -496; -695; 649; -16188; 1981
618; -489; -702; 654; -16181; 1975
616; -483; -705; 663; -16175; 1973
627; -490; -702; 649; -16183; 1981
626; -487; -704; 650; -16183; 1973
628; -487; -702; 652; -16168; 1959
634; -513; -711; 630; -16177; 1964
631; -498; -695; 614; -16217; 1968
614; -486; -699; 646; -16197; 1983
621; -480; -688; 647; -16185; 1980
621; -476; -691; 659; -16179; 1978
620; -482; -692; 630; -16193; 1991
624; -483; -694; 644; -16179; 1979
626; -493; -697; 631; -16187; 1977
625; -500; -694; 657; -16183; 1976
617; -500; -694; 645; -16186; 1979
630; -485; -687; 653; -16181; 1981
624; -488; -693; 649; -16186; 1989
623; -493; -698; 645; -16193; 1997
624; -482; -697; 647; -16140; 2045
623; -489; -697; 637; -16148; 2004
629; -489; -696; 635; -16177; 2008
620; -477; -701; 647; -16183; 2016
622; -493; -697; 653; -16185; 1985
627; -499; -697; 642; -16176; 2012
635; -489; -701; 652; -16167; 1989
629; -491; -698; 640; -16192; 1983
612; -498; -700; 646; -16181; 1986
620; -502; -694; 642; -16187; 1990
621; -499; -697; 645; -16171; 2000
615; -486; -694; 649; -16179; 2004
623; -484; -698; 647; -16185; 1999
632; -490; -696; 655; -16218; 1973
622; -487; -701; 656; -16197; 1984
629; -477; -690; 652; -16269; 1982
625; -486; -703; 655; -16184; 1998
635; -483; -700; 646; -16187; 1989
627; -474; -694; 644; -16169; 1990
624; -492; -701; 643; -16178; 1992
617; -487; -701; 651; -16177; 2013
615; -490; -694; 647; -16176; 2017
616; -489; -699; 652; -16183; 2004
621; -489; -688; 653; -16182; 2002
620; -487; -693; 644; -16175; 2000
627; -481; -700; 647; -16181; 2012
621; -480; -688; 625; -16175; 2028
622; -497; -689; 670; -16182; 2070
627; -491; -698; 632; -16180; 1984
618; -462; -688; 651; -16172; 2030
624; -494; -696; 656; -16181; 2015
623; -486; -703; 651; -16181; 2015
623; -479; -692; 643; -16179; 2021
621; -497; -694; 648; -16181; 2006
634; -501; -692; 643; -16187; 2003
630; -491; -694; 643; -16177; 2027
632; -487; -693; 640; -16177; 2027
627; -484; -700; 650; -16180; 2005
635; -495; -699; 643; -16185; 2032
626; -484; -706; 654; -16186; 2010
616; -485; -696; 664; -16158; 2025
623; -489; -695; 666; -16165; 2055
626; -479; -700; 657; -16210; 1998
618; -471; -697; 660; -16169; 2060
633; -485; -696; 647; -16164; 2027
625; -487; -701; 651; -16175; 2019
626; -494; -694; 646; -16161; 2016
627; -496; -689; 640; -16179; 2014
619; -485; -694; 648; -16186; 2033
625; -492; -696; 659; -16175; 2014
637; -494; -701; 653; -16191; 2028
631; -490; -692; 643; -16181; 2022
628; -497; -696; 650; -16166; 2042
619; -490; -686; 651; -16182; 2034
627; -483; -703; 648; -16171; 2036
638; -509; -714; 642; -16192; 2027
627; -488; -698; 673; -16177; 2030
626; -496; -700; 666; -16179; 2037
624; -496; -707; 668; -16188; 2018
624; -487; -701; 636; -16189; 2029
630; -484; -699; 649; -16192; 2023
631; -489; -699; 654; -16182; 2042
631; -494; -695; 638; -16172; 2040
629; -483; -698; 631; -16189; 2021
617; -497; -700; 666; -16186; 2000
624; -491; -704; 641; -16188; 2009
631; -489; -698; 654; -16177; 2019
634; -488; -695; 646; -16174; 2035
627; -485; -701; 642; -16164; 2047
613; -475; -694; 644; -16183; 2044
621; -492; -694; 653; -16173; 2119
628; -504; -705; 666; -16174; 2056
626; -498; -694; 644; -16188; 2021
626; -486; -696; 641; -16176; 2029
616; -497; -693; 652; -16182; 2037
621; -492; -696; 643; -16180; 2040
628; -500; -693; 655; -16182; 2036
619; -493; -694; 638; -16190; 2026
620; -492; -693; 655; -16190; 2031
633; -498; -694; 657; -16171; 2037
633; -488; -704; 651; -16179; 2034
632; -487; -697; 640; -16177; 2034
623; -490; -697; 652; -16177; 2026
610; -473; -686; 607; -16177; 2062
621; -474; -695; 634; -16176; 2036
626; -472; -695; 643; -16192; 2038
627; -482; -694; 655; -16169; 2049
624; -484; -695; 639; -16180; 2037
623; -486; -696; 636; -16178; 2054
629; -488; -690; 655; -16185; 2034
630; -483; -702; 643; -16192; 2048
620; -484; -699; 635; -16180; 2029
627; -491; -698; 648; -16167; 2042
631; -478; -694; 651; -16183; 2039
623; -491; -695; 630; -16193; 2054
618; -484; -689; 643; -16178; 2047
611; -462; -683; 653; -16181; 2056
624; -485; -701; 621; -16169; 2007
628; -484; -700; 665; -16183; 2072
632; -486; -701; 659; -16189; 2044
624; -492; -697; 632; -16176; 2056
621; -490; -699; 628; -16180; 2037
621; -491; -695; 650; -16188; 2036
619; -492; -697; 658; -16179; 2045
614; -487; -698; 652; -16189; 2052
624; -483; -692; 655; -16184; 2051
626; -486; -699; 655; -16181; 2038
621; -485; -698; 653; -16182; 2031
626; -488; -697; 646; -16177; 2048
635; -482; -696; 653; -16188; 2061
631; -494; -697; 682; -16178; 2025
611; -453; -685; 674; -16155; 2060
627; -484; -702; 637; -16180; 2030
618; -483; -692; 640; -16173; 2082
616; -471; -683; 665; -16168; 2042
623; -504; -693; 647; -16175; 2056
627; -492; -698; 653; -16182; 2037
621; -484; -699; 651; -16177; 2056
625; -491; -699; 649; -16181; 2052
628; -489; -698; 648; -16172; 2035
626; -491; -691; 644; -16182; 2036
620; -491; -698; 648; -16181; 2048
616; -485; -696; 656; -16189; 2059
618; -490; -698; 660; -16188; 2046
618; -494; -700; 645; -16182; 2071
626; -488; -695; 631; -16133; 2092
627; -492; -699; 655; -16175; 2059
624; -470; -687; 652; -16173; 2056
615; -455; -680; 658; -16189; 2025
628; -482; -692; 639; -16182; 2042
625; -487; -699; 622; -16170; 2058
615; -483; -699; 646; -16163; 2049
619; -488; -702; 646; -16167; 2058
613; -491; -697; 645; -16179; 2053
623; -501; -688; 652; -16179; 2043
629; -498; -690; 640; -16174; 2040
631; -500; -691; 622; -16184; 2027
635; -491; -686; 634; -16178; 2033
625; -486; -692; 647; -16169; 2058
640; -515; -715; 727; -16197; 2047
625; -506; -713; 679; -16186; 2026
615; -486; -706; 713; -16155; 2092
632; -498; -703; 658; -16180; 2036
628; -482; -694; 650; -16170; 2050
626; -489; -694; 645; -16172; 2053
624; -486; -701; 651; -16183; 2047
621; -479; -704; 659; -16181; 2052
622; -490; -693; 664; -16190; 2069
621; -485; -697; 663; -16182; 2051
622; -484; -687; 659; -16174; 2044
632; -501; -691; 650; -16176; 2075
620; -496; -695; 651; -16190; 2064
625; -481; -695; 642; -16207; 2015
618; -492; -708; 664; -16179; 2043
625; -493; -716; 671; -16197; 2014
633; -487; -703; 652; -16166; 2054
627; -486; -697; 651; -16169; 2052
619; -492; -701; 635; -16172; 2068
629; -495; -692; 655; -16186; 2048
625; -493; -697; 646; -16191; 2052
633; -492; -700; 655; -16172; 2047
627; -491; -700; 650; -16176; 2064
621; -490; -699; 664; -16181; 2057
623; -500; -702; 653; -16169; 2050
634; -489; -702; 637; -16192; 2055
626; -469; -694; 650; -16188; 2035
628; -482; -708; 624; -16153; 2021
618; -488; -706; 636; -16160; 2041
594; -386; -663; 683; -16192; 2072
604; -430; -682; 662; -16191; 2059
627; -493; -706; 676; -16177; 2046
627; -480; -697; 637; -16191; 2038
624; -484; -696; 643; -16168; 2048
629; -486; -698; 641; -16175; 2047
625; -485; -706; 645; -16180; 2050
615; -490; -695; 673; -16181; 2057
621; -486; -701; 672; -16191; 2057
629; -494; -699; 664; -16193; 2055
622; -495; -694; 636; -16175; 2043
622; -492; -691; 608; -16198; 2079
624; -472; -693; 635; -16193; 2072
623; -486; -701; 644; -16184; 2004
633; -514; -717; 671; -16198; 2035
638; -511; -715; 676; -16207; 2051
625; -486; -696; 672; -16183; 2063
635; -490; -693; 647; -16168; 2062
634; -490; -696; 630; -16174; 2037
631; -486; -689; 633; -16167; 2064
626; -498; -693; 642; -16186; 2066
623; -493; -701; 667; -16185; 2060
630; -484; -697; 687; -16182; 2056
615; -485; -696; 669; -16174; 2069
624; -481; -691; 668; -16184; 2057
623; -485; -696; 635; -16189; 2076
635; -487; -701; 633; -16176; 2105
629; -494; -703; 662; -16173; 2047
622; -484; -701; 628; -16160; 2013
626; -479; -701; 686; -16168; 2076
628; -497; -698; 670; -16178; 2064
626; -499; -691; 658; -16177; 2062
619; -478; -699; 638; -16178; 2059
621; -483; -696; 623; -16180; 2055
623; -490; -701; 633; -16178; 2070
620; -498; -704; 659; -16171; 2072
635; -487; -702; 661; -16172; 2082
634; -494; -700; 682; -16181; 2064
623; -489; -690; 671; -16182; 2053
624; -488; -698; 658; -16176; 2068
617; -462; -691; 618; -16121; 2071
614; -473; -690; 673; -16197; 2071
626; -500; -712; 644; -16168; 2067
625; -494; -707; 674; -16201; 2077
625; -497; -700; 666; -16186; 2056
622; -487; -701; 678; -16181; 2062
623; -491; -698; 653; -16173; 2061
616; -487; -694; 640; -16181; 2059
622; -484; -696; 629; -16186; 2055
630; -493; -697; 626; -16177; 2058
629; -489; -700; 642; -16172; 2065
621; -481; -698; 667; -16188; 2054
633; -486; -701; 677; -16188; 2058
620; -480; -703; 648; -16151; 2085
618; -471; -686; 656; -16198; 2087
621; -480; -680; 594; -16184; 2042
623; -496; -701; 648; -16172; 2066
627; -500; -701; 667; -16162; 2069
625; -481; -695; 653; -16186; 2058
612; -483; -696; 665; -16190; 2061
616; -496; -698; 663; -16181; 2058
617; -489; -693; 635; -16172; 2049
627; -484; -698; 631; -16172; 2054
619; -488; -698; 640; -16162; 2054
620; -489; -703; 664; -16164; 2056
620; -485; -700; 665; -16187; 2055
622; -494; -702; 651; -16207; 2072
638; -519; -713; 677; -16213; 2054
619; -495; -691; 614; -16214; 2080
633; -494; -699; 615; -16170; 2009
633; -493; -701; 628; -16169; 2061
618; -487; -699; 649; -16173; 2063
623; -494; -696; 664; -16173; 2064
620; -494; -701; 665; -16176; 2061
626; -490; -697; 676; -16215; 2064
628; -476; -689; 680; -16169; 2076
631; -494; -694; 636; -16161; 2064
634; -493; -694; 646; -16173; 2078
623; -485; -695; 628; -16163; 2068
626; -490; -703; 665; -16169; 2064
626; -488; -696; 652; -16190; 2065
628; -476; -684; 671; -16173; 2113
637; -514; -699; 648; -16154; 2071
624; -479; -687; 640; -16183; 2066
632; -489; -691; 645; -16161; 2071
613; -493; -699; 646; -16169; 2068
623; -492; -702; 658; -16181; 2070
637; -478; -696; 670; -16175; 2065
617; -471; -697; 673; -16180; 2067
622; -478; -704; 658; -16175; 2070
619; -491; -696; 634; -16182; 2061
614; -487; -700; 636; -16189; 2068
619; -498; -696; 633; -16178; 2051
621; -494; -699; 661; -16178; 2063
617; -486; -707; 662; -16170; 2059
614; -475; -693; 692; -16175; 2110
631; -501; -695; 650; -16182; 2073
613; -475; -693; 652; -16166; 2092
615; -489; -689; 617; -16153; 2030
617; -494; -701; 639; -16165; 2067
623; -487; -703; 636; -16181; 2066
621; -487; -700; 658; -16189; 2059
623; -490; -694; 668; -16192; 2069
618; -499; -692; 640; -16196; 2079
617; -488; -693; 647; -16185; 2082
619; -483; -697; 660; -16170; 2073
621; -487; -705; 631; -16187; 2056
620; -492; -707; 646; -16181; 2053
622; -485; -708; 662; -16186; 2064
625; -515; -709; 691; -16196; 2064
637; -522; -710; 640; -16181; 2071
628; -500; -704; 710; -16190; 2093
629; -515; -707; 641; -16177; 2052
620; -491; -691; 645; -16170; 2067
625; -492; -702; 640; -16192; 2079
621; -489; -696; 649; -16179; 2062
616; -484; -700; 673; -16187; 2053
620; -493; -694; 672; -16177; 2064
610; -490; -698; 670; -16187; 2053
624; -497; -704; 659; -16181; 2063
629; -492; -692; 640; -16169; 2060
619; -493; -694; 650; -16188; 2054
611; -484; -704; 662; -16177; 2052
618; -503; -711; 713; -16202; 2060
626; -504; -700; 680; -16188; 2074
622; -491; -702; 663; -16180; 2054
629; -491; -701; 664; -16170; 2072
629; -494; -699; 650; -16182; 2062
624; -479; -698; 635; -16179; 2057
625; -482; -696; 657; -16192; 2061
616; -492; -689; 669; -16194; 2061
626; -484; -702; 658; -16176; 2061
625; -494; -701; 675; -16179; 2067
623; -486; -689; 660; -16180; 2066
617; -484; -701; 651; -16191; 2058
622; -491; -705; 608; -16191; 2075
628; -495; -700; 648; -16165; 2092
626; -482; -696; 596; -16182; 2058
618; -489; -691; 640; -16180; 2075
634; -490; -695; 623; -16169; 2082
621; -493; -700; 605; -16161; 2078
619; -492; -701; 602; -16160; 2083
627; -481; -693; 607; -16155; 2077
635; -492; -703; 617; -16167; 2063
629; -490; -703; 600; -16171; 2083
627; -494; -708; 607; -16176; 2079
631; -490; -705; 616; -16175; 2078
623; -489; -702; 624; -16168; 2070
619; -496; -702; 610; -16153; 2066
632; -494; -704; 596; -16176; 2091
634; -498; -699; 627; -16146; 2077
627; -480; -695; 603; -16154; 2035
626; -492; -700; 604; -16161; 2085
619; -490; -702; 627; -16165; 2071
628; -491; -705; 615; -16176; 2077
631; -482; -697; 607; -16173; 2089
621; -489; -695; 613; -16155; 2074
617; -498; -695; 611; -16165; 2063
617; -493; -691; 607; -16156; 2072
627; -497; -703; 601; -16166; 2089
615; -500; -700; 614; -16154; 2085
615; -492; -695; 605; -16175; 2079
620; -486; -692; 601; -16152; 2073
626; -484; -692; 598; -16175; 2087
625; -482; -687; 625; -16168; 2114
615; -485; -696; 591; -16152; 2076
600; -428; -673; 628; -16154; 2104
631; -511; -718; 605; -16183; 2099
630; -500; -705; 620; -16177; 2073
634; -491; -700; 614; -16176; 2081
628; -491; -693; 605; -16163; 2087
623; -489; -692; 605; -16156; 2084
622; -490; -698; 599; -16156; 2066
628; -486; -704; 614; -16171; 2083
616; -487; -702; 621; -16158; 2094
630; -494; -699; 616; -16183; 2074
621; -491; -695; 614; -16168; 2081
625; -480; -695; 618; -16175; 2085
627; -486; -705; 595; -16167; 2088
616; -446; -686; 611; -16192; 2051
625; -492; -698; 597; -16169; 2066
635; -486; -703; 622; -16172; 2079
635; -487; -704; 618; -16174; 2082
633; -495; -692; 619; -16165; 2084
625; -494; -696; 610; -16172; 2062
630; -482; -699; 594; -16168; 2097
630; -489; -694; 594; -16161; 2075
623; -482; -707; 603; -16190; 2064
629; -489; -695; 601; -16194; 2069
634; -499; -698; 611; -16184; 2069
631; -485; -698; 602; -16198; 2081
639; -480; -705; 610; -16169; 2071
632; -483; -698; 626; -16151; 2077
634; -483; -705; 598; -16168; 2074
623; -471; -701; 618; -16124; 2091
625; -486; -700; 618; -16153; 2074
634; -491; -703; 612; -16162; 2088
634; -495; -695; 627; -16166; 2103
626; -489; -697; 609; -16175; 2083
633; -483; -680; 603; -16157; 2073
625; -486; -692; 586; -16147; 2082
627; -495; -697; 614; -16162; 2099
616; -497; -691; 611; -16168; 2066
629; -489; -700; 616; -16157; 2079
622; -480; -696; 625; -16148; 2080
626; -514; -716; 619; -16156; 2034
628; -503; -714; 594; -16190; 2121
619; -488; -707; 585; -16150; 2119
590; -403; -654; 608; -16175; 2094
622; -493; -700; 613; -16154; 2083
619; -487; -698; 611; -16153; 2078
612; -485; -703; 624; -16155; 2070
624; -480; -696; 601; -16146; 2084
625; -493; -700; 624; -16175; 2083
619; -484; -701; 604; -16163; 2085
622; -477; -698; 604; -16161; 2097
623; -493; -700; 604; -16182; 2074
611; -486; -704; 613; -16171; 2083
627; -485; -703; 615; -16169; 2097
624; -474; -693; 593; -16193; 2061
631; -497; -709; 614; -16165; 2068
662; -573; -732; 616; -16156; 2072
635; -504; -705; 606; -16135; 2080
602; -472; -705; 624; -16166; 2072
620; -489; -698; 608; -16169; 2095
612; -486; -694; 624; -16170; 2092
623; -481; -698; 623; -16173; 2078
625; -496; -702; 619; -16162; 2073
621; -491; -702; 610; -16160; 2079
635; -493; -694; 609; -16163; 2083
623; -484; -701; 625; -16157; 2079
610; -490; -698; 614; -16166; 2083
619; -487; -694; 617; -16174; 2075
615; -493; -699; 607; -16160; 2075
624; -492; -694; 582; -16170; 2103
625; -508; -697; 610; -16162; 2079
606; -443; -665; 597; -16172; 2085
625; -493; -686; 579; -16174; 2083
623; -501; -703; 612; -16161; 2080
631; -491; -697; 622; -16155; 2082
623; -494; -702; 600; -16163; 2084
636; -495; -692; 626; -16165; 2098
629; -488; -695; 595; -16165; 2093
631; -474; -693; 606; -16162; 2104
630; -482; -694; 596; -16175; 2086
622; -489; -695; 614; -16173; 2065
622; -484; -699; 609; -16175; 2072
619; -483; -703; 624; -16238; 2071
622; -485; -690; 609; -15995; 2081
613; -463; -685; 551; -16155; 2071
616; -469; -708; 591; -16264; 2032
625; -490; -707; 753; -16222; 2172
634; -494; -694; 738; -16189; 2127
622; -466; -673; 602; -16157; 2037
625; -476; -677; 502; -16132; 2104
617; -481; -695; 507; -16118; 2098
619; -480; -711; 539; -16177; 2038
631; -497; -728; 643; -16146; 2095
634; -503; -721; 751; -16223; 2099
622; -490; -697; 731; -16182; 2086
626; -485; -675; 636; -16181; 2080
622; -480; -658; 528; -16135; 2087
624; -479; -676; 478; -16141; 2066
627; -467; -700; 457; -16148; 2089
616; -472; -707; 614; -16142; 2060
636; -503; -735; 775; -16168; 2097
631; -479; -714; 785; -16193; 2119
626; -479; -679; 677; -16191; 2088
631; -482; -666; 586; -16141; 2093
628; -488; -668; 474; -16144; 2082
630; -488; -694; 486; -16150; 2074
628; -498; -724; 587; -16160; 2068
625; -497; -740; 699; -16186; 2102
625; -487; -727; 742; -16191; 2088
613; -490; -691; 725; -16194; 2084
617; -480; -667; 612; -16144; 2084
622; -487; -664; 509; -16146; 2062
620; -478; -680; 473; -16141; 2106
608; -473; -703; 545; -16112; 2093
628; -495; -739; 667; -16155; 2076
628; -486; -729; 744; -16194; 2080
623; -485; -698; 737; -16195; 2080
622; -479; -673; 633; -16164; 2094
630; -483; -665; 530; -16150; 2075
624; -486; -683; 485; -16144; 2070
620; -494; -707; 535; -16147; 2064
621; -499; -724; 608; -16161; 2086
621; -499; -731; 704; -16180; 2093
626; -496; -702; 727; -16183; 2089
631; -489; -673; 661; -16200; 2084
629; -485; -663; 543; -16174; 2152
619; -478; -668; 493; -16129; 2081
615; -483; -694; 483; -16145; 2051
625; -484; -717; 583; -16169; 2095
627; -496; -727; 697; -16185; 2078
621; -495; -716; 744; -16186; 2108
620; -488; -684; 694; -16181; 2074
619; -498; -668; 597; -16172; 2093
622; -476; -667; 517; -16138; 2064
627; -496; -688; 505; -16134; 2070
634; -493; -720; 552; -16156; 2071
623; -495; -724; 651; -16186; 2087
624; -495; -714; 715; -16190; 2080
629; -491; -696; 668; -16196; 2096
618; -481; -672; 649; -16147; 2061
618; -473; -669; 506; -16178; 2039
627; -476; -677; 490; -16147; 2075
621; -467; -699; 537; -16140; 2070
637; -490; -724; 613; -16166; 2093
632; -501; -719; 689; -16183; 2089
631; -494; -705; 705; -16174; 2094
623; -489; -675; 652; -16169; 2086
629; -484; -667; 563; -16143; 2076
628; -481; -671; 523; -16144; 2077
632; -493; -699; 535; -16138; 2083
632; -492; -731; 617; -16163; 2078
625; -498; -724; 686; -16191; 2091
629; -489; -711; 716; -16187; 2080
629; -488; -695; 724; -16139; 2094
618; -471; -671; 585; -16167; 2105
619; -493; -678; 488; -16125; 2116
620; -469; -689; 533; -16164; 2083
623; -481; -706; 582; -16153; 2077
619; -491; -718; 657; -16176; 2086
622; -503; -720; 698; -16200; 2096
625; -495; -691; 675; -16190; 2108
632; -491; -687; 606; -16169; 2078
629; -493; -677; 544; -16147; 2070
624; -482; -675; 518; -16152; 2067
630; -487; -697; 560; -16155; 2073
615; -500; -714; 632; -16166; 2094
625; -492; -721; 697; -16179; 2084
614; -481; -704; 714; -16178; 2072
620; -484; -691; 635; -16161; 2058
650; -550; -706; 563; -16168; 2091
635; -505; -689; 532; -16161; 2046
619; -482; -709; 532; -16148; 2079
623; -487; -729; 606; -16160; 2076
625; -488; -718; 670; -16184; 2078
622; -491; -702; 701; -16184; 2085
628; -485; -691; 652; -16173; 2086
629; -475; -669; 581; -16155; 2090
630; -490; -678; 519; -16148; 2079
623; -489; -702; 542; -16144; 2077
623; -489; -709; 594; -16148; 2083
631; -486; -715; 659; -16161; 2083
631; -486; -713; 701; -16180; 2094
605; -461; -684; 645; -16156; 2095
622; -491; -683; 662; -16203; 2095
618; -478; -676; 553; -16151; 2073
626; -484; -684; 538; -16151; 2071
625; -489; -706; 555; -16159; 2087
620; -490; -716; 637; -16161; 2099
619; -492; -716; 681; -16162; 2085
624; -486; -701; 698; -16184; 2080
625; -488; -691; 622; -16178; 2092
627; -489; -683; 568; -16145; 2078
627; -488; -687; 545; -16144; 2073
623; -496; -699; 557; -16162; 2103
627; -499; -707; 596; -16180; 2082
620; -494; -705; 663; -16120; 2147
616; -473; -702; 654; -16192; 2026
629; -492; -699; 630; -16191; 2118
624; -505; -697; 679; -16201; 2122
623; -473; -687; 611; -16130; 2050
617; -483; -677; 565; -16134; 2061
613; -489; -695; 547; -16166; 2136
613; -484; -701; 602; -16178; 2030
620; -495; -708; 611; -16137; 2093
629; -487; -708; 709; -16167; 2107
625; -492; -700; 690; -16200; 2055
622; -494; -688; 614; -16155; 2104
617; -484; -686; 585; -16169; 2081
626; -480; -681; 555; -16153; 2001
607; -431; -669; 575; -16177; 2067
618; -477; -704; 575; -16175; 2070
626; -506; -711; 657; -16171; 2100
628; -488; -704; 677; -16171; 2102
628; -492; -686; 624; -16159; 2094
620; -486; -675; 594; -16166; 2062
636; -485; -687; 559; -16142; 2089
632; -486; -704; 556; -16143; 2087
624; -489; -711; 579; -16165; 2085
633; -500; -711; 642; -16178; 2080
624; -481; -707; 664; -16169; 2121
626; -480; -691; 635; -16173; 2090
627; -484; -681; 619; -16165; 2074
629; -496; -683; 559; -16154; 2092
636; -494; -695; 531; -16189; 2066
634; -495; -709; 563; -16160; 2092
630; -489; -710; 647; -16195; 2086
627; -497; -702; 651; -16161; 2070
620; -493; -693; 649; -16177; 2069
617; -492; -685; 618; -16168; 2090
614; -482; -687; 580; -16151; 2063
620; -483; -689; 546; -16159; 2080
625; -478; -692; 582; -16169; 2100
622; -491; -705; 623; -16184; 2075
622; -486; -710; 649; -16167; 2083
613; -505; -704; 658; -16178; 2086
622; -491; -694; 642; -16154; 2095
624; -479; -689; 597; -16163; 2090
626; -489; -691; 580; -16163; 2109
629; -502; -702; 544; -16169; 2117
625; -496; -704; 616; -16163; 2089
628; -504; -704; 635; -16165; 2104
633; -494; -701; 658; -16182; 2085
629; -495; -689; 629; -16157; 2090
622; -495; -683; 606; -16171; 2085
623; -487; -695; 587; -16158; 2080
626; -479; -701; 568; -16141; 2070
620; -489; -704; 596; -16168; 2099
630; -492; -706; 641; -16164; 2099
626; -496; -707; 652; -16176; 2092
625; -482; -701; 652; -16165; 2098
634; -496; -688; 639; -16158; 2136
631; -498; -689; 562; -16150; 2024
620; -483; -685; 555; -16158; 2106
631; -491; -699; 572; -16148; 2078
616; -478; -706; 604; -16167; 2086
615; -490; -708; 647; -16162; 2083
614; -482; -703; 656; -16174; 2080
625; -486; -694; 621; -16170; 2090
624; -488; -692; 604; -16163; 2105
616; -493; -692; 580; -16151; 2078
626; -477; -700; 587; -16165; 2099
630; -486; -707; 613; -16174; 2098
624; -477; -708; 637; -16161; 2083
626; -500; -702; 672; -16149; 2104
630; -493; -698; 625; -16155; 2099
621; -476; -682; 614; -16155; 2103
619; -483; -682; 582; -16155; 2089
625; -479; -699; 582; -16151; 2076
631; -495; -706; 601; -16147; 2085
631; -485; -701; 621; -16167; 2087
627; -476; -705; 638; -16169; 2091
632; -487; -700; 660; -16191; 2103
630; -486; -680; 620; -16165; 2077
626; -481; -683; 580; -16164; 2074
620; -485; -693; 566; -16158; 2081
628; -494; -699; 604; -16135; 2077
626; -486; -706; 635; -16154; 2101
626; -485; -703; 621; -16171; 2130
625; -471; -685; 640; -16160; 2104
631; -477; -688; 596; -16180; 2060
627; -486; -690; 593; -16159; 2077
629; -484; -686; 579; -16156; 2088
628; -491; -698; 590; -16159; 2088
631; -492; -699; 609; -16164; 2090
631; -494; -700; 631; -16175; 2104
626; -485; -700; 655; -16172; 2076
632; -487; -699; 622; -16182; 2078
638; -494; -682; 597; -16162; 2098
631; -500; -686; 584; -16160; 2073
629; -484; -695; 578; -16158; 2076
624; -487; -704; 602; -16160; 2074
627; -500; -714; 627; -16137; 2121
630; -499; -699; 642; -16206; 2090
619; -475; -688; 626; -16209; 2086
615; -464; -677; 615; -16181; 2086
628; -486; -686; 594; -16153; 2084
625; -481; -693; 571; -16158; 2076
625; -486; -696; 601; -16167; 2084
620; -487; -698; 618; -16164; 2098
625; -483; -693; 641; -16173; 2087
626; -478; -691; 635; -16162; 2093
636; -489; -687; 617; -16157; 2091
629; -490; -690; 596; -16149; 2081
626; -487; -690; 578; -16159; 2081
627; -486; -697; 597; -16163; 2080
624; -502; -706; 613; -16161; 2069
611; -483; -700; 626; -16155; 2086
621; -481; -694; 625; -16168; 2061
620; -496; -698; 643; -16188; 2102
620; -485; -689; 611; -16170; 2069
634; -485; -691; 581; -16154; 2083
628; -489; -696; 596; -16157; 2075
619; -487; -697; 598; -16160; 2077
626; -486; -697; 626; -16179; 2098
625; -484; -698; 629; -16176; 2084
629; -492; -692; 615; -16160; 2089
630; -490; -691; 596; -16169; 2087
623; -480; -692; 607; -16152; 2078
632; -496; -692; 591; -16164; 2079
625; -485; -704; 599; -16172; 2086
641; -523; -718; 611; -16148; 2090
623; -488; -698; 626; -16149; 2031
621; -485; -692; 632; -16155; 2069
628; -494; -694; 628; -16166; 2083
627; -491; -685; 608; -16173; 2103
631; -490; -693; 588; -16163; 2094
622; -484; -711; 608; -16152; 2077
627; -484; -707; 623; -16157; 2091
625; -487; -694; 635; -16171; 2092
629; -483; -695; 630; -16159; 2078
630; -474; -693; 605; -16164; 2094
623; -487; -685; 576; -16166; 2085
629; -492; -693; 590; -16154; 2075
623; -495; -703; 564; -16167; 2065
629; -499; -708; 574; -16144; 2085
623; -480; -701; 609; -16152; 2090
629; -488; -702; 615; -16159; 2077
623; -491; -700; 620; -16162; 2077
623; -497; -685; 611; -16155; 2090
624; -487; -693; 597; -16159; 2079
622; -484; -695; 596; -16159; 2090
610; -481; -704; 621; -16158; 2077
631; -486; -707; 636; -16158; 2088
626; -493; -696; 629; -16175; 2092
620; -485; -697; 627; -16164; 2096
624; -497; -696; 600; -16161; 2098
631; -504; -695; 576; -16156; 2117
622; -495; -690; 576; -16174; 2083
623; -459; -697; 601; -16158; 2090
629; -473; -695; 617; -16156; 2110
626; -492; -700; 632; -16169; 2093
628; -499; -692; 629; -16155; 2100
626; -483; -698; 604; -16175; 2092
629; -473; -696; 600; -16157; 2080
634; -486; -699; 575; -16150; 2089
627; -483; -692; 597; -16160; 2097
622; -481; -701; 630; -16165; 2077
626; -487; -695; 636; -16151; 2092
623; -479; -700; 631; -16162; 2088
627; -483; -691; 618; -16171; 2073
619; -470; -692; 577; -16177; 2100
613; -461; -686; 604; -16159; 2106
622; -468; -692; 582; -16153; 2080
627; -482; -706; 588; -16149; 2064
631; -475; -690; 613; -16168; 2069
633; -488; -694; 625; -16173; 2091
630; -491; -688; 610; -16166; 2084
625; -498; -694; 596; -16172; 2090
627; -481; -686; 599; -16154; 2085
622; -484; -698; 597; -16154; 2079
627; -493; -704; 632; -16151; 2075
631; -485; -704; 637; -16160; 2092
630; -483; -701; 635; -16156; 2079
623; -486; -694; 625; -16169; 2098
623; -489; -693; 589; -16160; 2081
617; -480; -695; 593; -16195; 2059
622; -486; -697; 629; -16198; 2075
614; -486; -702; 617; -16147; 2090
623; -500; -701; 596; -16141; 2087
625; -488; -701; 643; -16161; 2102
624; -485; -698; 616; -16181; 2090
624; -488; -691; 601; -16175; 2088
632; -482; -687; 595; -16147; 2083
632; -483; -691; 598; -16164; 2083
619; -487; -707; 598; -16160; 2075
630; -495; -694; 633; -16162; 2101
635; -490; -695; 625; -16172; 2098
628; -480; -695; 624; -16171; 2083
627; -483; -703; 623; -16160; 2085
623; -472; -691; 616; -16155; 2094
622; -475; -696; 562; -16160; 2071
630; -518; -715; 589; -16166; 2063
623; -476; -700; 634; -16144; 2121
629; -494; -710; 631; -16185; 2059
625; -495; -702; 629; -16162; 2073
625; -488; -690; 612; -16155; 2103
631; -491; -689; 601; -16174; 2097
625; -488; -695; 599; -16165; 2098
621; -493; -696; 603; -16155; 2080
623; -490; -697; 616; -16156; 2074
621; -490; -709; 622; -16169; 2102
636; -494; -705; 611; -16169; 2085
627; -485; -702; 633; -16175; 2080
627; -486; -693; 621; -16167; 2088
622; -479; -689; 604; -16159; 2058
619; -495; -697; 615; -16185; 2065
618; -474; -692; 616; -16200; 2091
617; -472; -697; 602; -16193; 2042
618; -480; -693; 638; -16155; 2069
619; -484; -692; 631; -16168; 2083
630; -491; -689; 630; -16158; 2087
632; -481; -697; 595; -16153; 2072
624; -496; -693; 595; -16153; 2089
616; -492; -697; 609; -16167; 2105
628; -492; -699; 630; -16168; 2081
625; -494; -702; 630; -16165; 2090
622; -477; -695; 629; -16165; 2076
625; -492; -695; 617; -16164; 2097
635; -492; -695; 600; -16162; 2079
631; -506; -694; 587; -16172; 2083
628; -491; -697; 574; -16132; 2127
621; -500; -704; 601; -16172; 2077
617; -492; -701; 600; -16154; 2066
612; -481; -706; 606; -16163; 2065
629; -486; -690; 635; -16172; 2083
618; -488; -702; 636; -16169; 2098
633; -490; -711; 620; -16160; 2088
631; -488; -699; 617; -16174; 2087
634; -492; -698; 619; -16177; 2087
624; -491; -685; 644; -16159; 2122
619; -483; -686; 664; -16145; 2160
621; -457; -686; 420; -16178; 1915
638; -507; -707; 583; -16200; 2085
638; -526; -725; 709; -16151; 2177
629; -469; -709; 635; -16198; 2003
621; -472; -692; 545; -16208; 2057
627; -511; -693; 676; -16174; 2164
620; -488; -693; 647; -16175; 2074
625; -461; -691; 468; -16125; 2021
630; -501; -703; 606; -16159; 2127
623; -497; -704; 703; -16190; 2101
620; -487; -703; 560; -16153; 2040
625; -489; -700; 629; -16167; 2091
632; -509; -692; 709; -16178; 2120
630; -474; -683; 583; -16153; 2075
627; -487; -693; 543; -16158; 2111
629; -519; -711; 639; -16148; 2116
625; -485; -708; 619; -16139; 2111
621; -472; -703; 595; -16197; 2047
621; -508; -700; 646; -16173; 2063
626; -496; -698; 692; -16183; 2129
619; -471; -685; 581; -16160; 2075
616; -482; -694; 558; -16172; 2068
623; -493; -706; 627; -16158; 2134
627; -492; -705; 587; -16148; 2087
624; -478; -699; 579; -16175; 2050
627; -494; -703; 666; -16177; 2114
618; -491; -698; 652; -16167; 2109
613; -487; -696; 590; -16174; 2051
616; -484; -686; 603; -16175; 2069
619; -481; -690; 620; -16154; 2130
615; -489; -699; 559; -16147; 2083
621; -489; -700; 566; -16130; 2070
628; -511; -712; 667; -16161; 2120
619; -487; -701; 645; -16169; 2080
632; -481; -690; 618; -16168; 2071
637; -494; -688; 627; -16170; 2097
631; -486; -686; 611; -16153; 2082
622; -481; -700; 561; -16162; 2070
637; -489; -709; 610; -16164; 2079
635; -497; -704; 649; -16165; 2091
629; -489; -699; 622; -16182; 2079
632; -498; -690; 632; -16160; 2085
631; -494; -690; 624; -16159; 2092
623; -490; -688; 637; -16159; 2077
615; -468; -683; 565; -16178; 2063
618; -495; -700; 631; -16169; 2064
630; -512; -708; 626; -16204; 2074
626; -486; -706; 630; -16171; 2078
629; -492; -698; 653; -16168; 2070
624; -503; -697; 631; -16155; 2088
619; -495; -689; 591; -16162; 2075
622; -487; -690; 576; -16159; 2075
624; -493; -695; 609; -16153; 2095
627; -489; -698; 606; -16172; 2081
624; -492; -702; 621; -16175; 2091
625; -489; -697; 643; -16177; 2089
631; -478; -695; 629; -16173; 2084
629; -495; -690; 579; -16123; 2083
633; -492; -705; 606; -16153; 2071
625; -480; -701; 567; -16135; 2156
618; -471; -702; 591; -16167; 2087
619; -486; -703; 629; -16172; 2090
622; -498; -705; 645; -16173; 2098
623; -487; -692; 617; -16166; 2076
626; -485; -690; 600; -16163; 2086
627; -492; -688; 599; -16154; 2078
624; -489; -693; 589; -16158; 2071
618; -490; -702; 596; -16153; 2076
621; -493; -707; 609; -16167; 2082
622; -490; -708; 623; -16169; 2088
629; -490; -697; 606; -16169; 2068
638; -489; -694; 561; -16146; 2030
637; -519; -713; 638; -16195; 1979
625; -506; -710; 614; -16174; 2095
623; -495; -689; 673; -16165; 2114
623; -498; -692; 644; -16149; 2046
629; -505; -685; 688; -16152; 2195
617; -482; -685; 659; -16190; 2119
611; -467; -680; 551; -16152; 1998
622; -469; -688; 540; -16117; 2116
616; -478; -701; 592; -16156; 2096
628; -473; -703; 552; -16191; 2009
637; -495; -710; 608; -16183; 2086
620; -488; -705; 697; -16160; 2109
618; -473; -696; 678; -16199; 2038
619; -465; -676; 608; -16151; 2083
631; -492; -686; 581; -16135; 2077
625; -510; -695; 583; -16150; 2069
620; -495; -700; 548; -16154; 2088
624; -496; -710; 614; -16177; 2075
627; -500; -709; 691; -16189; 2091
620; -489; -690; 664; -16175; 2124
621; -480; -673; 616; -16145; 2070
620; -489; -686; 605; -16173; 2072
623; -484; -687; 567; -16155; 2096
628; -482; -691; 562; -16148; 2069
627; -490; -699; 622; -16177; 2092
618; -492; -706; 649; -16160; 2116
622; -470; -699; 724; -16190; 2077
626; -485; -700; 611; -16166; 2035
629; -492; -693; 561; -16145; 2096
628; -474; -686; 521; -16098; 2130
623; -472; -704; 575; -16141; 2043
621; -482; -721; 631; -16159; 2078
628; -486; -716; 654; -16175; 2081
630; -494; -704; 670; -16186; 2075
625; -492; -691; 650; -16151; 2111
620; -476; -684; 586; -16154; 2075
623; -476; -690; 556; -16174; 2069
626; -477; -699; 563; -16156; 2076
625; -485; -719; 576; -16160; 2075
632; -492; -723; 639; -16175; 2090
625; -490; -700; 668; -16183; 2070
612; -481; -679; 675; -16169; 2085
623; -474; -682; 607; -16142; 2083
635; -478; -699; 569; -16138; 2069
631; -480; -705; 554; -16154; 2075
624; -497; -723; 579; -16178; 2062
619; -495; -731; 642; -16182; 2080
628; -488; -723; 681; -16172; 2094
635; -486; -710; 661; -16174; 2085
628; -483; -704; 625; -16171; 2069
629; -489; -695; 615; -16172; 2069
633; -490; -704; 574; -16145; 2072
626; -496; -712; 572; -16167; 2092
635; -507; -722; 626; -16159; 2079
637; -510; -717; 673; -16170; 2092
638; -513; -710; 650; -16178; 2056
627; -496; -700; 610; -16161; 2033
627; -503; -704; 624; -16185; 2068
627; -485; -700; 590; -16158; 2085
632; -486; -701; 548; -16150; 2079
628; -501; -701; 589; -16168; 2067
640; -507; -714; 611; -16167; 2063
645; -495; -725; 612; -16163; 2109
637; -480; -733; 610; -16175; 2084
636; -485; -728; 630; -16181; 2077
640; -486; -726; 635; -16177; 2103
634; -496; -720; 647; -16169; 2094
631; -508; -714; 682; -16181; 2084
628; -517; -707; 628; -16182; 2076
629; -517; -709; 604; -16186; 2094
638; -538; -712; 653; -16218; 2068
628; -491; -692; 649; -16173; 2088
632; -497; -686; 642; -16148; 2102
631; -490; -687; 611; -16156; 2082
620; -494; -683; 561; -16180; 2057
633; -504; -696; 570; -16149; 2119
625; -490; -727; 587; -16138; 2104
631; -474; -724; 621; -16177; 2015
634; -488; -721; 658; -16183; 2049
631; -489; -709; 683; -16175; 2090
622; -496; -700; 696; -16192; 2099
633; -506; -690; 653; -16160; 2062
623; -467; -671; 585; -16155; 2106
657; -581; -731; 521; -16118; 2103
641; -533; -738; 482; -16139; 2138
622; -495; -734; 618; -16159; 2118
623; -486; -723; 699; -16184; 2095
622; -494; -713; 741; -16198; 2101
623; -484; -695; 696; -16186; 2127
620; -490; -678; 606; -16154; 2071
628; -482; -690; 533; -16149; 2086
632; -484; -718; 543; -16149; 2066
633; -487; -733; 564; -16153; 2062
627; -502; -743; 720; -16158; 2128
633; -496; -721; 802; -16169; 2176
621; -488; -687; 761; -16196; 2083
627; -495; -669; 649; -16174; 2047
628; -494; -655; 518; -16126; 2100
614; -476; -672; 469; -16143; 1986
626; -489; -708; 505; -16149; 2058
638; -501; -742; 627; -16157; 2096
633; -497; -738; 737; -16194; 2072
634; -504; -721; 768; -16192; 2073
634; -498; -699; 707; -16173; 2111
633; -492; -673; 566; -16169; 2075
627; -500; -678; 483; -16129; 2095
626; -499; -704; 511; -16109; 2129
627; -492; -741; 599; -16150; 2107
628; -492; -750; 732; -16188; 2129
618; -499; -734; 861; -16191; 2176
618; -479; -693; 772; -16195; 2123
615; -469; -664; 678; -16140; 2153
613; -462; -655; 448; -16109; 2122
613; -449; -683; 392; -16120; 2014
617; -476; -724; 514; -16148; 2023
627; -480; -749; 665; -16183; 2046
624; -498; -742; 769; -16209; 2050
630; -505; -713; 777; -16192; 2068
638; -501; -681; 697; -16169; 2122
638; -501; -667; 570; -16165; 2078
635; -506; -682; 529; -16136; 2068
640; -515; -691; 520; -16129; 2084
630; -514; -722; 618; -16159; 2100
632; -512; -723; 720; -16196; 2142
633; -512; -701; 739; -16160; 2171
617; -498; -691; 710; -16135; 2118
626; -481; -686; 634; -16203; 2075
618; -481; -682; 572; -16144; 2083
626; -486; -696; 614; -16177; 2079
626; -498; -725; 591; -16144; 2093
623; -493; -731; 683; -16175; 2140
619; -475; -718; 751; -16194; 2124
615; -474; -694; 734; -16170; 2129
618; -465; -664; 673; -16157; 2111
615; -469; -658; 590; -16153; 2085
619; -477; -667; 532; -16155; 2069
615; -464; -698; 510; -16141; 2058
621; -481; -720; 575; -16144; 2042
629; -486; -738; 646; -16192; 2018
632; -501; -726; 696; -16213; 2040
640; -508; -719; 718; -16187; 2090
639; -504; -692; 645; -16165; 2114
642; -490; -688; 537; -16129; 2108
635; -514; -700; 577; -16148; 2107
631; -496; -716; 590; -16149; 2094
631; -502; -736; 710; -16171; 2140
628; -502; -712; 795; -16185; 2153
615; -478; -692; 774; -16179; 2129
607; -473; -665; 704; -16179; 2075
621; -498; -651; 692; -16187; 2083
626; -472; -634; 492; -16161; 2090
631; -468; -662; 312; -16086; 2042
617; -503; -718; 524; -16166; 2068
621; -509; -745; 755; -16179; 2113
622; -515; -732; 905; -16174; 2135
615; -501; -674; 867; -16201; 2090
620; -483; -624; 594; -16162; 2149
617; -469; -627; 338; -16088; 2105
614; -482; -688; 319; -16082; 2103
615; -485; -769; 419; -16127; 2013
629; -502; -817; 705; -16193; 2042
634; -504; -804; 1025; -16266; 2078
629; -485; -725; 946; -16245; 2072
627; -464; -647; 682; -16173; 2108
627; -479; -643; 432; -16118; 2070
629; -498; -673; 393; -16103; 2087
628; -500; -731; 509; -16136; 2082
610; -515; -752; 778; -16172; 2139
603; -504; -727; 892; -16188; 2149
613; -474; -691; 719; -16169; 2102
612; -470; -676; 513; -16123; 2096
616; -474; -704; 413; -16129; 2059
606; -487; -750; 495; -16157; 2066
606; -498; -765; 678; -16223; 2090
613; -509; -738; 812; -16230; 2093
614; -505; -697; 875; -16150; 2091
611; -503; -681; 806; -16185; 2112
612; -496; -657; 585; -16170; 2084
609; -498; -667; 427; -16112; 2075
618; -506; -712; 455; -16118; 2107
613; -506; -752; 604; -16188; 2061
632; -527; -758; 760; -16189; 2113
602; -495; -691; 762; -16187; 2112
599; -491; -674; 649; -16150; 2081
597; -474; -688; 485; -16148; 2065
604; -490; -704; 421; -16176; 2092
613; -517; -716; 481; -16174; 2097
609; -523; -714; 568; -16173; 2053
616; -537; -721; 724; -16128; 2093
610; -523; -734; 812; -16191; 2098
603; -508; -700; 732; -16190; 2046
595; -505; -684; 483; -16172; 2093
592; -506; -681; 103; -16225; 2038
596; -554; -697; -156; -16310; 1966
603; -613; -687; -348; -16322; 1983
608; -707; -634; -276; -16136; 2055
618; -776; -639; -29; -16014; 2092
618; -804; -729; 414; -16259; 2059
612; -799; -786; 574; -16348; 2122
597; -796; -639; 803; -16126; 2050
590; -800; -687; 621; -15927; 1932
580; -794; -689; 717; -16116; 2212
598; -798; -696; 911; -16270; 2166
616; -797; -772; 1387; -16778; 2090
678; -734; -801; 1659; -17051; 1985
716; -673; -701; 1969; -17401; 2075
818; -593; -696; 2074; -17863; 2257
923; -482; -727; 1713; -18157; 2307
1039; -412; -697; 1570; -19190; 1995
1272; -345; -649; 1328; -19495; 1982
1508; -297; -649; 1184; -19347; 2069
1713; -221; -581; 1300; -18852; 2203
1926; -210; -612; 983; -18418; 1918
2076; -236; -619; 904; -18237; 1981
2208; -209; -554; 623; -18148; 2064
2368; -205; -586; 222; -17958; 2028
2506; -280; -551; 469; -17449; 2244
2588; -273; -510; 755; -16688; 2312
2643; -265; -603; 894; -16282; 2286
2641; -274; -584; 834; -16172; 2420
2619; -239; -510; 586; -16178; 2416
2623; -223; -562; 34; -16713; 2484
2651; -227; -634; -618; -17465; 2443
2747; -316; -615; -1041; -17979; 2350
2869; -425; -576; -1271; -18506; 2213
3020; -494; -623; -1446; -19101; 2246
3239; -667; -639; -1159; -19544; 2365
3472; -797; -575; -689; -19382; 2342
3714; -898; -579; 182; -19302; 2779
3956; -929; -653; 932; -19070; 2819
4155; -927; -622; 1926; -18831; 2841
4356; -827; -592; 2491; -18292; 3261
4499; -667; -639; 2714; -17909; 3030
4633; -543; -682; 2670; -17964; 2686
4764; -414; -541; 2441; -17789; 2963
4882; -291; -394; 1834; -17442; 3336
5009; -234; -448; 1520; -17404; 3439
5113; -182; -475; 1196; -17573; 3295
5221; -163; -443; 787; -17663; 3048
5362; -171; -418; 585; -17771; 3257
5491; -135; -318; 63; -17335; 3972
5578; -158; -346; -448; -17097; 3839
5678; -238; -490; -607; -16993; 3512
5789; -312; -484; -789; -16626; 3641
5835; -432; -419; -354; -16378; 4269
5901; -480; -577; -63; -16295; 3910
5902; -520; -549; 278; -16932; 3844
5996; -543; -388; 495; -16689; 4229
6066; -519; -408; 531; -16841; 4576
6185; -517; -526; 621; -16968; 4394
6248; -530; -364; 743; -16642; 4543
6352; -497; -362; 838; -16109; 4800
6413; -457; -515; 828; -16481; 4889
6486; -470; -441; 963; -16326; 4838
6561; -454; -370; 1037; -15973; 4992
6633; -418; -461; 1116; -15854; 5348
6672; -394; -419; 1213; -15394; 5228
6659; -367; -279; 1075; -14708; 5377
6664; -330; -399; 1008; -14520; 6013
6621; -263; -548; 692; -15361; 5900
6628; -253; -449; 347; -15148; 5432
6639; -270; -339; 273; -14837; 5811
6675; -274; -404; 138; -14632; 6386
6647; -294; -410; 57; -14148; 6381
6597; -343; -383; 171; -13861; 6245
6543; -351; -444; 51; -13921; 6571
6486; -363; -458; 115; -13958; 6879
6431; -385; -438; 155; -14060; 6820
6403; -378; -459; -19; -14125; 6627
6385; -395; -494; -128; -14388; 6886
6354; -440; -363; -237; -14056; 7192
6327; -506; -353; 86; -14220; 7440
6364; -535; -578; 388; -14833; 7394
6390; -542; -536; 574; -14600; 7350
6393; -536; -363; 816; -14487; 7759
6455; -484; -472; 694; -14524; 7839
6459; -476; -478; 709; -14616; 7687
6505; -466; -324; 911; -14196; 7811
6546; -434; -436; 1099; -14138; 8265
6568; -382; -553; 1127; -14208; 8365
6571; -326; -374; 993; -14189; 8249
6610; -276; -394; 809; -13952; 8362
6627; -215; -479; 419; -14649; 8324
6703; -242; -305; 222; -14063; 8360
6756; -256; -322; 57; -13952; 8956
6818; -271; -549; -135; -14348; 8964
6879; -308; -484; -105; -13972; 8421
6937; -364; -362; 105; -13619; 8956
6992; -378; -424; 174; -13312; 9327
6978; -395; -401; 517; -13215; 9177
7007; -372; -330; 591; -12773; 9059
7001; -338; -348; 380; -12791; 9723
7010; -350; -455; 409; -12600; 9983
7008; -316; -573; -66; -13280; 9510
7033; -370; -391; -1; -12878; 9873
7026; -365; -295; 70; -12959; 9860
7118; -354; -445; -41; -12711; 9666
7140; -412; -310; 54; -12471; 10249
7149; -418; -377; 235; -11988; 10362
7147; -394; -621; 29; -12819; 10075
7197; -447; -358; 313; -12145; 10610
7195; -436; -266; 474; -11934; 10696
7243; -401; -502; 432; -12144; 10579
7253; -381; -391; 479; -11862; 10733
7269; -368; -321; 423; -11558; 10912
7311; -333; -564; 236; -11913; 11020
7316; -340; -411; 133; -11809; 10949
7332; -392; -222; 445; -11538; 11089
7408; -356; -432; 387; -11419; 11186
7430; -341; -338; 584; -10989; 11521
7426; -345; -278; 824; -9918; 11846
7413; -240; -632; 515; -10449; 11299
7377; -230; -445; 500; -10403; 11831
7315; -234; -146; 245; -9848; 12185
7317; -211; -454; 42; -10257; 11766
7331; -202; -484; -289; -10304; 11810
7303; -263; -237; -127; -9498; 12481
7311; -250; -500; -259; -9477; 12016
7295; -286; -584; -290; -9528; 12323
7195; -335; -185; -377; -9046; 12548
7161; -361; -237; -583; -8825; 12465
7146; -395; -605; -689; -9788; 12573
7146; -450; -402; -531; -9610; 12574
7170; -504; -276; -234; -8701; 12868
7183; -534; -560; -44; -9299; 13149
7163; -538; -377; 231; -8991; 12853
7180; -543; -201; 565; -7893; 12937
7143; -476; -479; 569; -8328; 13573
7113; -441; -530; 448; -8255; 13171
7091; -429; -386; 427; -7856; 13378
7057; -398; -459; 162; -8106; 13540
7008; -414; -391; 234; -8503; 13421
7033; -405; -291; 208; -8011; 13300
7059; -401; -410; 199; -7984; 13825
7067; -413; -466; 401; -7725; 13944
7047; -337; -450; 509; -7995; 13522
7082; -327; -411; 500; -6901; 13967
7022; -304; -410; 469; -7355; 14295
7019; -281; -251; 236; -6766; 13907
6974; -279; -273; 196; -6295; 14135
6970; -234; -574; -33; -6823; 14372
6952; -243; -489; -86; -6346; 14125
6917; -276; -374; -153; -6174; 14370
6856; -281; -407; -336; -6384; 14549
6826; -299; -329; -444; -6171; 13995
6784; -350; -211; -447; -5919; 14525
6794; -381; -433; -483; -5406; 14975
6742; -384; -633; -552; -6473; 14092
6781; -449; -387; -481; -5464; 14625
6711; -455; -367; -369; -5564; 15202
6721; -484; -409; -141; -6346; 14483
6731; -483; -276; 113; -5704; 14599
6755; -462; -400; 27; -5882; 15369
6836; -422; -608; -96; -6755; 14695
6924; -454; -437; -18; -5422; 14481
6929; -458; -386; 81; -5469; 15422
6981; -475; -470; 309; -5738; 14787
6996; -462; -239; 517; -4583; 14707
7011; -424; -336; 715; -4079; 15652
7022; -329; -714; 619; -5343; 15033
7068; -329; -429; 681; -3989; 15049
7002; -265; -228; 353; -4062; 15577
7050; -248; -466; 145; -4695; 15218
7083; -253; -372; 106; -3908; 15054
7093; -216; -281; -136; -3386; 15332
7082; -241; -364; -241; -3350; 15576
7121; -231; -583; -641; -2488; 15286
7019; -253; -555; -835; -3383; 15422
7017; -331; -143; -825; -2743; 15432
6979; -376; -325; -767; -2358; 15331
6996; -401; -626; -687; -3514; 15494
6982; -456; -217; -556; -2242; 15560
6970; -508; -292; -159; -1645; 15652
6997; -456; -852; -236; -3254; 15400
6989; -478; -386; -219; -1939; 15788
6932; -530; -23; 123; -1521; 15560
7007; -484; -605; 72; -1735; 15390
6932; -494; -492; 217; -1737; 16087
6924; -492; -145; 541; -486; 15724
6913; -410; -671; 468; -1516; 15651
6871; -377; -496; 615; -1668; 15966
6832; -361; -34; 589; -534; 15692
6856; -301; -437; 578; -1101; 15741
6863; -238; -565; 257; -815; 16035
6823; -210; -303; 51; -906; 15534
6873; -213; -474; -285; -375; 15794
6867; -207; -564; -738; -804; 16094
6824; -256; -191; -978; -547; 15508
6882; -315; -269; -1219; 318; 15625
6858; -366; -550; -1264; -582; 15940
6909; -445; -405; -1074; 5; 15507
6896; -524; -399; -684; 629; 15641
6938; -538; -575; -558; -19; 16126
6904; -588; -324; -74; 465; 15563
6868; -515; -122; 302; 1230; 15631
6906; -534; -472; 532; 703; 16146
6942; -512; -613; 625; 405; 15673
6925; -479; -308; 857; 1032; 15630
6989; -399; -444; 714; 752; 16095
7004; -332; -541; 613; 619; 15638
6989; -282; -196; 392; 802; 15517
7107; -243; -305; -36; 1269; 15857
7137; -228; -460; -369; 1161; 15470
7212; -253; -386; -721; 1765; 15467
7216; -302; -458; -740; 1580; 15519
7249; -336; -333; -797; 1408; 15282
7310; -380; -275; -702; 1978; 15571
7390; -423; -480; -552; 1680; 15319
7411; -448; -285; -235; 1976; 15236
7499; -471; -346; -21; 3092; 15529
7511; -462; -627; 45; 1595; 15179
7592; -457; -261; 231; 2780; 15219
7579; -410; -218; 294; 3100; 15297
7695; -366; -576; 204; 2647; 15221
7718; -343; -383; 98; 3591; 15153
7739; -343; -299; 1; 3820; 15071
7772; -313; -455; -152; 3429; 14868
7780; -312; -334; -334; 3891; 15086
7817; -340; -267; -474; 4501; 14986
7817; -334; -357; -671; 4625; 14743
7863; -369; -522; -811; 4499; 14748
7823; -423; -409; -705; 4554; 14685
7835; -487; -218; -365; 4969; 14545
7879; -495; -436; -170; 4907; 14593
7906; -497; -504; -16; 4761; 14492
7942; -511; -286; 271; 5692; 14596
7950; -469; -406; 118; 5783; 14466
7941; -445; -469; 66; 5376; 14335
7954; -430; -244; 30; 6205; 14408
7961; -424; -337; -29; 6549; 14365
7970; -418; -511; -155; 6488; 14090
7933; -436; -379; -211; 6725; 14219
7929; -473; -322; -82; 7037; 14064
7907; -459; -433; 21; 6914; 13905
7912; -444; -456; 171; 6959; 14137
7935; -420; -344; 185; 7736; 14070
7913; -354; -355; -62; 8365; 13950
7839; -353; -405; -288; 8191; 13673
7759; -401; -282; -205; 8786; 13574
7681; -399; -433; 22; 8545; 13639
7639; -403; -488; 295; 8789; 13752
7562; -374; -313; 434; 9003; 13705
7544; -345; -394; 295; 9204; 13534
7445; -305; -430; 117; 9051; 13328
7387; -297; -348; -22; 9339; 13424
7351; -319; -398; -20; 9772; 13412
7276; -302; -407; -91; 10294; 13198
7168; -317; -346; -374; 10413; 13242
7046; -358; -306; -312; 10357; 13188
6941; -342; -349; -291; 10263; 12689
6877; -342; -484; -82; 10218; 13143
6842; -395; -476; 55; 10614; 13357
6737; -329; -346; -63; 10970; 12920
6668; -325; -489; -201; 11087; 12725
6552; -359; -465; -309; 10958; 12729
6439; -392; -264; -259; 11306; 12773
6342; -380; -429; -316; 11182; 12467
6267; -382; -605; -262; 10531; 12738
6225; -408; -389; -91; 11243; 12833
6149; -423; -360; -50; 11520; 12200
6100; -426; -559; -46; 11189; 12316
5985; -436; -391; 11; 11001; 12566
5933; -412; -316; -26; 11240; 12154
5900; -405; -542; 4; 10748; 12102
5901; -392; -544; 210; 11233; 12320
5869; -377; -417; 238; 11767; 12057
5824; -362; -523; 264; 11555; 11944
5790; -336; -522; -181; 11319; 11862
5726; -375; -320; -163; 11334; 11938
5697; -358; -414; -306; 10972; 11545
5717; -378; -571; -264; 10528; 11398
5763; -400; -533; -81; 10479; 11682
5847; -401; -479; 120; 11084; 11709
5862; -416; -426; 270; 11432; 11211
5876; -370; -480; 189; 11377; 11305
5884; -364; -404; -87; 11315; 11259
5862; -400; -304; -14; 11180; 10939
5915; -393; -467; -194; 10526; 10801
6011; -378; -481; -193; 10674; 10872
6092; -365; -449; -210; 10973; 10899
6190; -360; -488; -317; 11288; 10547
6224; -389; -533; -244; 11291; 10241
6305; -424; -495; -197; 11112; 10203
6384; -457; -319; 39; 11657; 10374
6416; -448; -363; 40; 11737; 10133
6476; -426; -557; 85; 11350; 10010
6532; -420; -485; 193; 11388; 9945
6647; -407; -396; 146; 11876; 10019
6722; -386; -429; 183; 12127; 9825
6765; -387; -341; 82; 13044; 9171
6736; -409; -399; 124; 12857; 9331
6751; -391; -453; 161; 12853; 9628
6749; -375; -339; 105; 13100; 9133
6772; -385; -391; 369; 13690; 9258
6729; -307; -455; 65; 13512; 9077
6744; -313; -498; -296; 13401; 8705
6752; -352; -403; -485; 14111; 8686
6686; -403; -330; -490; 14344; 8943
6652; -420; -469; -471; 14622; 8342
6584; -469; -457; -215; 14710; 8366
6517; -488; -355; 32; 15019; 8705
6434; -457; -492; -60; 14753; 8118
6403; -472; -591; -124; 14660; 7985
6327; -504; -449; -96; 15285; 8372
6273; -511; -415; -57; 15600; 8095
6186; -529; -442; 372; 16568; 7983
6017; -513; -422; 601; 16879; 8122
5844; -460; -493; 692; 17395; 7875
5598; -426; -559; 705; 16739; 7721
5457; -371; -580; 289; 16577; 7813
5274; -390; -437; 176; 16377; 7990
5153; -387; -442; -44; 16278; 7511
5032; -401; -485; -227; 16087; 7330
4951; -427; -498; -77; 16221; 7533
4825; -446; -487; 106; 16376; 7368
4710; -425; -527; 304; 16295; 7172
4612; -434; -590; 518; 16276; 7262
4491; -404; -576; 520; 16286; 7260
4391; -370; -522; 394; 16070; 7119
4284; -343; -422; 303; 15866; 7003
4212; -274; -399; 142; 16206; 7033
4150; -331; -546; -16; 16216; 6880
4064; -343; -549; 42; 16196; 6831
3958; -351; -457; 237; 16512; 7019
3862; -334; -504; 175; 16352; 6604
3786; -336; -630; 249; 16259; 6537
3686; -322; -626; -2; 15746; 6619
3663; -314; -522; -380; 15982; 6645
3590; -367; -505; -444; 16085; 6423
3536; -392; -560; -453; 16044; 6198
3453; -455; -580; -124; 15811; 6282
3405; -485; -578; 165; 15432; 6237
3378; -465; -545; 240; 15382; 6456
3385; -454; -558; 8; 15490; 6244
3377; -438; -579; -204; 15597; 6012
3368; -478; -600; -256; 15819; 6008
3328; -519; -575; -83; 16001; 5992
3269; -550; -598; 154; 15942; 5952
3230; -543; -619; 369; 15838; 5983
3198; -530; -588; 521; 15929; 5948
3163; -492; -586; 454; 16115; 5825
3118; -478; -601; 409; 16163; 5768
3073; -459; -601; 406; 16113; 5731
3010; -448; -593; 473; 16057; 5640
2966; -438; -587; 600; 15825; 5684
2931; -402; -565; 630; 15533; 5646
2918; -356; -533; 471; 15350; 5476
2919; -299; -535; 95; 15244; 5437
2962; -333; -582; -405; 15164; 5429
2986; -366; -568; -567; 15148; 5238
3009; -422; -597; -479; 15075; 5131
3046; -479; -596; -150; 15112; 5184
3084; -503; -542; 67; 15229; 5012
3121; -511; -624; 322; 15343; 4972
3139; -503; -651; 381; 15066; 5134
3185; -475; -553; 339; 15671; 5012
3171; -457; -566; 210; 15766; 4834
3181; -455; -654; 147; 15700; 4871
3179; -444; -618; 152; 15795; 4826
3178; -456; -551; 144; 16273; 4795
3148; -464; -607; 206; 16530; 4783
3096; -487; -629; 265; 16635; 4695
3035; -510; -585; 347; 16742; 4608
2936; -460; -561; 279; 16542; 4671
2895; -449; -591; 145; 16410; 4553
2842; -427; -582; -114; 16437; 4406
2805; -463; -606; -159; 16368; 4337
2776; -496; -625; -61; 16182; 4285
2748; -516; -619; 46; 15985; 4338
2751; -524; -605; 152; 16113; 4408
2730; -503; -612; 164; 16078; 4281
2703; -518; -576; 236; 16101; 4141
2698; -528; -587; 301; 16322; 4083
2675; -531; -623; 439; 16448; 4080
2637; -518; -645; 613; 16626; 4099
2578; -487; -634; 689; 16971; 4107
2529; -491; -642; 755; 17068; 4153
2434; -417; -620; 646; 16907; 4114
2374; -369; -586; 373; 16864; 4027
2299; -363; -582; 139; 16736; 3928
2259; -370; -625; -55; 16769; 3822
2214; -403; -648; -97; 16841; 3682
2142; -441; -633; -28; 16810; 3740
2079; -456; -624; -24; 16801; 3883
2021; -470; -605; 7; 16589; 3846
1979; -491; -634; 62; 16413; 3745
1968; -490; -646; 17; 16381; 3656
1939; -498; -621; 14; 16632; 3601
1880; -509; -584; 206; 16693; 3568
1862; -556; -691; 479; 16474; 3556
1807; -516; -693; 603; 16194; 3556
1808; -512; -636; 729; 16309; 3769
1792; -439; -609; 605; 16341; 3679
1767; -398; -632; 331; 16207; 3433
1763; -403; -622; 45; 16290; 3370
1758; -422; -633; -173; 16236; 3352
1747; -460; -654; -122; 16160; 3411
1742; -496; -645; 84; 16135; 3390
1740; -501; -640; 195; 16334; 3356
1717; -487; -650; 179; 16367; 3373
1711; -501; -651; 154; 16502; 3309
1682; -508; -671; 108; 16531; 3259
1652; -544; -682; 213; 16389; 3294
1620; -534; -627; 306; 16253; 3260
1581; -431; -587; 474; 16134; 3037
1599; -492; -667; 547; 15888; 3212
1620; -492; -674; 477; 15913; 3204
1634; -467; -663; 397; 15893; 3225
1659; -451; -674; 223; 15939; 3189
1677; -444; -649; 24; 15964; 3030
1684; -460; -632; -21; 16030; 2990
1700; -473; -675; -153; 16043; 2937
1712; -526; -682; -120; 16139; 2927
1712; -553; -666; -29; 16349; 3059
1698; -574; -661; 13; 16421; 3049
1668; -572; -681; 161; 16371; 2983
1670; -603; -665; 287; 16463; 2932
1296; -789; 66; 121; 31485; 4941
234; -641; -901; 2707; 14555; 1364
522; -598; -1975; 1423; 8881; 1141
707; -464; 396; 2573; 17407; 2082
861; -213; -158; -364; 23229; 2035
452; -248; -1647; 158; 12906; 2451
571; -249; -694; -147; 13877; 2028
691; -258; 138; -1243; 20596; 2357
582; -311; -1117; -309; 14996; 2834
540; -354; -973; -374; 14024; 2769
620; -443; -202; -342; 17279; 2543
639; -460; -593; 167; 16776; 2948
574; -422; -927; -61; 15547; 3240
623; -437; -716; -763; 16197; 2547
620; -554; -593; 112; 15681; 2950
594; -546; -502; 582; 16464; 3074
633; -567; -608; 1039; 16589; 2911
572; -417; -730; 720; 16233; 3238
607; -387; -836; -82; 16017; 2815
614; -420; -778; -308; 15985; 2795
608; -491; -653; -47; 15967; 2933
630; -525; -586; 434; 16303; 2878
622; -542; -617; 801; 16430; 3013
598; -474; -714; 517; 16253; 3035
606; -428; -781; 50; 16048; 2901
606; -467; -734; -168; 15944; 2871
606; -494; -627; -45; 16009; 2905
615; -515; -553; 320; 16189; 2951
605; -490; -537; 643; 16362; 2988
606; -497; -638; 618; 16365; 2998
598; -448; -732; 399; 16146; 3013
613; -451; -763; 200; 16185; 2973
627; -472; -753; 476; 16137; 3054
634; -479; -758; 85; 16160; 2838
612; -491; -732; 87; 16082; 2991
618; -505; -692; 158; 16138; 2896
629; -506; -676; 397; 16269; 2953
612; -479; -675; 414; 16146; 3080
626; -465; -696; 307; 16265; 2894
622; -469; -719; 273; 16177; 2941
609; -469; -724; 135; 16118; 2943
624; -494; -699; 218; 16158; 2929
623; -494; -682; 298; 16182; 3020
643; -536; -698; 334; 16248; 2927
620; -455; -688; 386; 16225; 2928
610; -447; -702; 223; 16141; 3000
621; -461; -698; 150; 16136; 2922
623; -484; -685; 213; 16120; 2969
631; -493; -665; 304; 16180; 2940
631; -502; -679; 405; 16287; 2946
627; -486; -705; 370; 16207; 2969
630; -481; -721; 221; 16151; 2922
621; -485; -717; 136; 16126; 2926
617; -489; -685; 144; 16113; 2945
619; -489; -667; 254; 16186; 2931
614; -506; -667; 402; 16225; 2990
625; -485; -685; 417; 16237; 2969
620; -473; -723; 258; 16190; 2983
621; -470; -726; 141; 16112; 2973
610; -468; -696; 137; 16089; 2957
625; -495; -659; 233; 16170; 2956
630; -498; -662; 387; 16269; 2952
623; -488; -687; 435; 16244; 2969
613; -480; -724; 304; 16188; 2978
622; -470; -737; 180; 16129; 2946
630; -480; -704; 102; 16077; 2940
635; -492; -667; 202; 16128; 2937
626; -506; -659; 367; 16251; 2939
620; -502; -681; 435; 16245; 2973
618; -477; -716; 340; 16198; 2973
610; -464; -723; 157; 16123; 2874
617; -500; -721; 130; 16078; 2972
628; -498; -684; 214; 16153; 2957
628; -493; -660; 320; 16213; 2928
623; -482; -675; 403; 16232; 2997
617; -475; -705; 323; 16239; 2922
624; -473; -734; 226; 16145; 2943
624; -489; -720; 139; 16125; 2909
614; -494; -700; 173; 16120; 2933
617; -497; -663; 298; 16143; 3001
633; -491; -659; 392; 16216; 2970
625; -483; -684; 373; 16282; 2941
623; -476; -721; 264; 16196; 2939
630; -487; -735; 169; 16126; 2865
625; -502; -720; 192; 16133; 2945
622; -509; -682; 228; 16125; 2972
625; -502; -663; 335; 16196; 2960
633; -480; -675; 401; 16216; 3002
622; -468; -694; 284; 16208; 2916
607; -470; -711; 231; 16160; 2934
624; -487; -705; 206; 16147; 2928
626; -501; -691; 268; 16178; 2957
626; -502; -684; 295; 16170; 2966
621; -480; -685; 306; 16173; 2967
626; -484; -689; 286; 16182; 2933
630; -483; -693; 248; 16175; 2931
610; -440; -672; 235; 16204; 2915
600; -424; -672; 281; 16209; 2909
623; -476; -698; 311; 16205; 2924
593; -452; -685; 292; 16197; 2934
620; -499; -714; 256; 16139; 2952
625; -493; -695; 230; 16157; 2948
626; -486; -687; 240; 16184; 2927
625; -479; -685; 281; 16171; 2966
621; -484; -685; 313; 16202; 2951
626; -489; -698; 316; 16220; 2946
620; -490; -712; 268; 16172; 2956
623; -489; -717; 215; 16162; 2927
612; -488; -701; 200; 16118; 2952
617; -484; -682; 230; 16133; 2990
613; -472; -661; 279; 16199; 2928
612; -465; -661; 334; 16204; 2972
610; -474; -697; 291; 16221; 2905
621; -485; -716; 276; 16196; 2927
617; -475; -719; 187; 16130; 2930
628; -490; -692; 197; 16136; 2915
633; -495; -686; 287; 16148; 2977
624; -498; -678; 352; 16201; 2971
632; -488; -691; 343; 16217; 2941
627; -473; -714; 273; 16180; 2946
634; -482; -725; 166; 16161; 2897
625; -484; -698; 199; 16126; 2943
623; -485; -677; 227; 16166; 2940
633; -497; -670; 329; 16223; 2941
624; -501; -681; 363; 16175; 3002
635; -478; -691; 314; 16180; 2941
629; -460; -700; 281; 16171; 2970
637; -498; -711; 204; 16172; 2903
632; -498; -701; 246; 16179; 2916
609; -490; -686; 264; 16182; 2943
615; -504; -696; 309; 16196; 2974
618; -485; -694; 250; 16155; 2965
620; -488; -695; 237; 16152; 2929
619; -478; -693; 236; 16183; 2919
617; -492; -682; 278; 16161; 2973
626; -503; -694; 311; 16193; 2951
635; -485; -696; 288; 16203; 2958
618; -488; -708; 254; 16158; 2954
614; -478; -703; 215; 16144; 2954
623; -486; -691; 222; 16160; 3041
640; -488; -678; 320; 16204; 2980
632; -466; -664; 350; 16224; 2939
636; -477; -686; 328; 16251; 2934
633; -497; -710; 307; 16208; 2946
618; -491; -719; 205; 16154; 2919
617; -491; -705; 187; 16112; 2987
626; -495; -683; 245; 16145; 2980
633; -492; -660; 294; 16193; 2941
625; -486; -676; 341; 16226; 2955
618; -470; -699; 299; 16234; 2901
609; -490; -713; 253; 16152; 2943
608; -495; -712; 188; 16139; 2944
618; -494; -703; 221; 16144; 2952
620; -498; -676; 245; 16148; 2965
622; -493; -681; 315; 16213; 3013
619; -464; -682; 331; 16209; 2964
627; -496; -707; 247; 16180; 2886
626; -491; -720; 219; 16157; 2949
620; -488; -703; 201; 16140; 2924
616; -500; -690; 249; 16146; 2937
622; -492; -682; 317; 16195; 2975
630; -499; -688; 333; 16196; 2984
631; -480; -696; 314; 16186; 2961
625; -477; -708; 224; 16178; 2920
622; -486; -709; 192; 16145; 2959
630; -480; -683; 219; 16161; 2944
619; -488; -665; 273; 16198; 2916
611; -493; -677; 331; 16195; 2987
621; -490; -693; 299; 16203; 3010
625; -496; -713; 215; 16179; 2938
615; -487; -704; 211; 16110; 2990
628; -488; -694; 268; 16177; 2954
629; -495; -693; 308; 16214; 2949
624; -488; -699; 323; 16211; 2951
631; -478; -713; 268; 16198; 2919
632; -473; -721; 213; 16129; 2951
628; -492; -694; 215; 16135; 2974
626; -483; -672; 258; 16160; 2962
618; -481; -668; 324; 16190; 2960
625; -485; -679; 341; 16202; 2948
629; -476; -703; 256; 16198; 2928
626; -484; -702; 224; 16166; 2958
621; -493; -696; 183; 16149; 2940
625; -488; -688; 222; 16157; 2960
625; -486; -680; 312; 16212; 2956
629; -492; -687; 337; 16210; 2949
613; -483; -708; 320; 16191; 2944
618; -472; -719; 248; 16166; 2946
619; -484; -702; 195; 16130; 2938
621; -487; -684; 193; 16172; 2920
623; -491; -689; 270; 16179; 2956
613; -496; -682; 352; 16197; 2991
618; -477; -693; 331; 16205; 2962
629; -471; -710; 268; 16154; 2945
624; -473; -702; 231; 16171; 2931
630; -478; -698; 219; 16144; 2931
652; -567; -715; 216; 16179; 2980
666; -598; -712; 321; 16233; 2956
618; -495; -686; 345; 16198; 2972
626; -484; -693; 303; 16210; 2929
617; -476; -715; 241; 16178; 2961
619; -491; -714; 196; 16121; 2969
629; -489; -685; 198; 16174; 2903
626; -489; -682; 298; 16182; 2955
628; -489; -694; 338; 16220; 2937
629; -480; -689; 306; 16221; 2927
623; -488; -709; 281; 16155; 2966
625; -488; -709; 229; 16172; 2924
622; -478; -694; 213; 16162; 2989
619; -481; -678; 274; 16158; 2918
630; -487; -680; 288; 16237; 2946
627; -469; -678; 331; 16190; 2995
616; -462; -687; 291; 16193; 2955
616; -475; -702; 225; 16176; 2915
617; -485; -703; 258; 16133; 2983
629; -473; -698; 222; 16151; 2934
634; -483; -684; 284; 16178; 2968
642; -481; -686; 318; 16202; 2963
640; -484; -689; 327; 16223; 2952
627; -479; -715; 261; 16189; 2928
626; -480; -716; 226; 16155; 2934
625; -486; -706; 190; 16154; 2919
619; -490; -688; 221; 16151; 2931
608; -487; -676; 290; 16172; 2929
601; -468; -672; 295; 16182; 2946
615; -489; -686; 333; 16230; 2961
622; -491; -704; 311; 16172; 2985
620; -482; -710; 274; 16155; 2963
628; -482; -716; 238; 16147; 2952
620; -487; -702; 213; 16153; 2960
620; -480; -683; 266; 16186; 2928
628; -492; -682; 312; 16196; 2954
623; -490; -687; 285; 16188; 2937
626; -480; -693; 262; 16181; 2921
627; -483; -703; 276; 16165; 2960
623; -479; -702; 255; 16154; 2942
620; -491; -703; 251; 16174; 2940
624; -489; -700; 291; 16174; 3011
619; -483; -697; 344; 16187; 3047
639; -491; -700; 306; 16153; 2952
629; -497; -698; 279; 16164; 2967
621; -477; -686; 265; 16194; 2927
623; -491; -690; 256; 16197; 2916
622; -492; -693; 294; 16170; 2969
615; -477; -699; 277; 16161; 2938
623; -486; -697; 274; 16146; 3018
635; -480; -696; 278; 16164; 2977
642; -473; -684; 244; 16192; 2937
634; -479; -691; 282; 16198; 2926
628; -481; -696; 279; 16223; 2913
617; -507; -712; 273; 16175; 2913
625; -521; -716; 289; 16085; 3059
627; -488; -681; 218; 16167; 2941
620; -481; -675; 276; 16198; 2930
625; -489; -684; 301; 16186; 2935
628; -486; -694; 300; 16199; 2932
626; -485; -696; 319; 16163; 3003
632; -477; -693; 232; 16164; 2933
624; -475; -699; 204; 16171; 2901
621; -488; -693; 265; 16167; 2954
620; -484; -686; 281; 16202; 2925
625; -486; -687; 295; 16182; 2983
617; -475; -689; 289; 16181; 2954
625; -474; -703; 275; 16208; 2916
627; -500; -695; 287; 16134; 2938
621; -480; -695; 284; 16157; 2921
617; -473; -691; 281; 16182; 2927
629; -492; -701; 331; 16168; 2974
628; -484; -698; 265; 16204; 2914
626; -485; -700; 229; 16156; 2950
620; -485; -695; 208; 16127; 2950
626; -497; -681; 225; 16190; 2907
622; -497; -672; 332; 16178; 2961
622; -491; -680; 361; 16230; 2966
629; -485; -704; 320; 16212; 2951
620; -475; -709; 220; 16123; 2952
627; -480; -705; 155; 16111; 2973
633; -487; -683; 246; 16155; 2968
627; -491; -675; 316; 16198; 2975
634; -510; -678; 364; 16237; 2935
628; -493; -715; 336; 16196; 2971
624; -478; -717; 204; 16165; 2932
609; -476; -706; 193; 16124; 2954
626; -492; -679; 230; 16150; 2946
632; -500; -668; 293; 16209; 2945
625; -501; -677; 366; 16159; 3023
642; -471; -696; 284; 16225; 2907
628; -480; -704; 250; 16189; 2917
615; -498; -715; 219; 16131; 2948
627; -490; -700; 247; 16155; 2931
622; -491; -697; 323; 16156; 3001
619; -495; -691; 306; 16186; 2963
626; -462; -685; 253; 16203; 2918
615; -454; -676; 245; 16149; 2963
621; -483; -682; 236; 16172; 2943
630; -487; -687; 296; 16197; 2941
624; -482; -689; 324; 16190; 2969
628; -479; -705; 322; 16235; 2941
623; -479; -716; 259; 16143; 2971
622; -472; -711; 190; 16131; 2925
625; -486; -686; 206; 16193; 2878
612; -493; -681; 285; 16147; 2956
616; -499; -674; 308; 16218; 2936
613; -483; -687; 341; 16199; 2971
619; -476; -701; 265; 16169; 2947
631; -498; -716; 205; 16185; 2959
672; -618; -753; 206; 16147; 2955
626; -522; -695; 273; 16146; 2959
609; -487; -677; 357; 16211; 2972
617; -489; -703; 356; 16202; 2980
621; -471; -714; 272; 16172; 2947
622; -471; -717; 202; 16135; 2914
618; -482; -685; 166; 16158; 2918
617; -475; -666; 241; 16164; 2940
626; -481; -664; 310; 16192; 2961
627; -495; -669; 368; 16236; 2940
625; -488; -704; 378; 16216; 3000
616; -482; -733; 243; 16161; 2941
621; -480; -732; 192; 16144; 2907
629; -491; -711; 172; 16119; 2944
614; -485; -673; 232; 16200; 3063
610; -493; -649; 280; 16211; 2987
625; -489; -659; 369; 16198; 2980
623; -473; -680; 309; 16217; 2942
622; -467; -702; 256; 16179; 2935
623; -474; -710; 173; 16149; 2902
618; -491; -692; 243; 16148; 2953
625; -499; -683; 303; 16153; 2983
632; -481; -672; 335; 16206; 2962
631; -477; -686; 327; 16184; 2944
631; -475; -708; 253; 16203; 2882
628; -497; -705; 233; 16180; 2912
619; -509; -703; 240; 16153; 2944
627; -486; -696; 257; 16150; 2968
621; -474; -691; 318; 16118; 3001
628; -471; -683; 339; 16196; 2966
644; -480; -699; 333; 16221; 2946
635; -479; -721; 313; 16190; 2939
632; -475; -734; 204; 16190; 2882
621; -484; -727; 166; 16105; 2943
619; -494; -696; 168; 16113; 2930
625; -492; -670; 245; 16163; 2938
623; -493; -660; 356; 16184; 2997
624; -487; -681; 357; 16232; 2952
622; -477; -707; 348; 16219; 2976
625; -475; -726; 265; 16203; 2932
628; -478; -735; 209; 16168; 2904
624; -485; -740; 201; 16144; 2883
625; -492; -728; 250; 16203; 2903
632; -519; -727; 348; 16151; 2951
622; -506; -723; 311; 16151; 2976
631; -472; -721; 216; 16167; 2904
628; -478; -714; 161; 16098; 2946
630; -481; -681; 153; 16140; 2917
626; -509; -671; 272; 16205; 2914
629; -520; -674; 407; 16215; 3004
633; -483; -695; 406; 16258; 2979
627; -477; -720; 345; 16216; 2984
631; -466; -741; 225; 16138; 2955
642; -472; -745; 186; 16142; 2926
629; -469; -719; 186; 16174; 2919
626; -470; -704; 251; 16209; 2927
636; -500; -710; 417; 16220; 2982
624; -444; -720; 425; 16259; 2967
628; -460; -772; 381; 16174; 2957
644; -469; -789; 325; 16185; 2888
635; -459; -755; 246; 16087; 2859
625; -455; -669; 256; 16050; 2946
618; -441; -602; 105; 16301; 3033
628; -431; -678; 5; 16114; 2970
631; -445; -682; -188; 16095; 2769
622; -506; -628; 9; 16084; 2923
636; -541; -583; 427; 16238; 2987
641; -534; -608; 664; 16363; 2974
629; -485; -688; 565; 16257; 3075
637; -469; -757; 168; 16205; 2894
627; -441; -755; -54; 16008; 2924
638; -484; -684; -34; 15978; 2953
647; -495; -606; 380; 16220; 2940
641; -504; -621; 635; 16361; 3008
653; -473; -703; 584; 16374; 2922
636; -445; -792; 173; 16193; 2885
635; -466; -800; -21; 15970; 2892
642; -494; -700; 114; 16074; 2847
642; -504; -636; 361; 16296; 2994
633; -488; -679; 496; 16200; 3013
640; -451; -704; 296; 16175; 2913
642; -436; -684; 215; 16084; 2991
650; -437; -667; 152; 16168; 3001
646; -440; -673; 46; 16203; 2773
627; -454; -658; 176; 16141; 2936
631; -493; -666; 334; 16307; 2997
646; -495; -696; 421; 16268; 2905
630; -505; -722; 526; 16107; 2982
630; -475; -744; 278; 16200; 2920
635; -472; -710; 345; 16013; 2863
639; -460; -622; 306; 16407; 3035
643; -422; -686; -161; 16992; 2870
565; -469; -714; -81; 17093; 3041
503; -499; -645; 96; 17580; 2995
398; -508; -685; 307; 17529; 3001
310; -506; -752; 460; 17421; 3001
232; -527; -687; 506; 17743; 2959
139; -508; -711; 430; 17904; 2909
6; -494; -743; 485; 17718; 3024
-126; -487; -667; 634; 17663; 3154
-233; -451; -648; 794; 17447; 3247
-306; -406; -730; 899; 17180; 3235
-368; -341; -743; 687; 17136; 3001
-443; -320; -693; 471; 17299; 3066
-505; -317; -733; 268; 17488; 3226
-607; -328; -730; -17; 17580; 3102
-714; -356; -697; -111; 17639; 3195
-807; -380; -710; -201; 17692; 3284
-912; -404; -734; -244; 17687; 3230
-1002; -430; -757; -184; 17861; 3178
-1126; -434; -740; -123; 18223; 3288
-1282; -416; -728; -134; 18382; 3393
-1409; -493; -792; -245; 18446; 3348
-1563; -546; -820; -398; 18596; 3398
-1745; -560; -795; -385; 18776; 3537
-1923; -608; -795; -226; 18717; 3587
-2115; -635; -830; -127; 18439; 3453
-2283; -672; -836; 25; 18226; 3594
-2431; -714; -835; 348; 18096; 3733
-2559; -719; -869; 573; 17989; 3700
-2698; -684; -882; 718; 17875; 3847
-2827; -647; -848; 825; 17894; 3907
-2945; -609; -859; 959; 18020; 3984
-3085; -547; -861; 726; 18002; 3988
-3236; -508; -839; 441; 17858; 4106
-3362; -511; -856; 198; 17599; 4068
-3485; -506; -875; -56; 17413; 4089
-3591; -541; -880; -183; 17301; 4122
-3697; -579; -898; -101; 17233; 4190
-3777; -610; -910; 27; 17234; 4335
-3880; -619; -892; 198; 17208; 4542
-3983; -598; -879; 364; 17201; 4602
-4079; -574; -881; 611; 17202; 4629
-4196; -582; -872; 923; 17032; 4833
-4292; -531; -892; 911; 16706; 4802
-4358; -478; -927; 635; 16394; 4746
-4411; -453; -902; 152; 16529; 5012
-4461; -431; -891; -390; 16851; 5113
-4548; -482; -938; -758; 16856; 5116
-4652; -548; -939; -880; 16807; 5103
-4749; -624; -926; -683; 16668; 5263
-4826; -699; -963; -166; 16455; 5478
-4902; -718; -970; 133; 16405; 5544
-4966; -715; -950; 335; 16584; 5585
-5054; -713; -939; 543; 16897; 5731
-5179; -692; -929; 829; 17062; 6093
-5314; -626; -953; 979; 17005; 6223
-5453; -559; -979; 952; 16483; 6150
-5552; -495; -957; 702; 16538; 6186
-5640; -476; -879; 488; 16780; 6314
-5766; -469; -931; 391; 16851; 6354
-5907; -452; -1033; 237; 16358; 6411
-6018; -458; -965; 117; 16192; 6636
-6111; -465; -981; -95; 16010; 6767
-6188; -445; -1065; -482; 15665; 6837
-6268; -442; -1011; -857; 15646; 6904
-6347; -525; -958; -1048; 15800; 7007
-6429; -613; -1019; -912; 15965; 6995
-6567; -685; -1141; -564; 15619; 7209
-6636; -739; -1243; -259; 14176; 7613
-6632; -829; -800; 447; 15163; 7469
-6737; -752; -849; 632; 14959; 7532
-6694; -701; -1299; 433; 14815; 7935
-6848; -702; -962; 312; 14767; 8027
-6885; -692; -773; 411; 15605; 8070
-7021; -663; -1174; 329; 14177; 8073
-7039; -651; -1230; 358; 13569; 8484
-7071; -660; -869; 472; 13860; 8515
-7062; -568; -1067; 200; 13645; 8245
-7101; -553; -1183; -26; 12720; 8678
-7100; -563; -924; -123; 12776; 9126
-7045; -592; -1010; -239; 12550; 9012
-7013; -633; -1159; -122; 12180; 8723
-6978; -657; -1017; 193; 12286; 9330
-6948; -666; -1018; 649; 12010; 9719
-6907; -609; -1096; 817; 11285; 9649
-6828; -543; -991; 907; 10829; 9989
-6708; -454; -969; 553; 10881; 9892
-6600; -402; -1081; 20; 10935; 9690
-6517; -413; -1030; -371; 10912; 10422
-6443; -449; -924; -818; 11165; 10372
-6382; -539; -994; -830; 10756; 10174
-6293; -587; -1075; -696; 10750; 10492
-6208; -628; -1087; -374; 10974; 10583
-6170; -660; -1053; 39; 10885; 11014
-6146; -637; -921; 138; 11039; 11386
-6117; -627; -983; 176; 10853; 11148
-6080; -579; -1125; 47; 9933; 11264
-6018; -554; -966; -94; 9785; 11320
-5917; -584; -883; -272; 10165; 11123
-5811; -612; -1067; -388; 10378; 11604
-5803; -631; -1038; -719; 10544; 12083
-5796; -688; -893; -600; 11036; 11780
-5810; -731; -992; -428; 11270; 11868
-5848; -744; -1138; -276; 11134; 11886
-5923; -792; -1004; 233; 10824; 12106
-5985; -741; -842; 369; 11134; 12594
-6041; -726; -990; 562; 10465; 12329
-6053; -690; -1054; 549; 10333; 12226
-6095; -644; -930; 249; 10430; 12711
-6104; -604; -1064; -64; 10714; 12375
-6203; -623; -1061; 167; 10284; 12353
-6249; -615; -941; 181; 10559; 13162
-6384; -600; -952; 650; 9726; 12976
-6400; -550; -954; 674; 9306; 12486
-6400; -525; -952; 683; 9116; 13121
-6378; -450; -1135; 340; 8628; 13022
-6369; -432; -1038; -75; 8308; 12834
-6391; -457; -804; -108; 8663; 13545
-6367; -429; -1009; -441; 8023; 13134
-6338; -461; -1118; -577; 7315; 13233
-6293; -491; -930; -479; 7446; 13638
-6237; -502; -927; -309; 7094; 13330
-6124; -528; -1074; -352; 7136; 13523
-6100; -518; -1037; -461; 6623; 13844
-6013; -564; -995; -538; 6775; 13752
-5985; -586; -961; -504; 6405; 13723
-5890; -626; -1054; -376; 6630; 13807
-5839; -649; -1106; -168; 6030; 14210
-5790; -629; -890; -44; 6166; 14109
-5747; -643; -870; -21; 6136; 14051
-5662; -613; -1064; -88; 5444; 14365
-5594; -637; -971; -172; 5164; 14293
-5496; -645; -897; -152; 5086; 14219
-5401; -629; -934; -91; 4824; 14573
-5259; -616; -963; -148; 4821; 14592
-5187; -612; -978; -210; 4763; 14688
-5077; -613; -981; -240; 4648; 14856
-4997; -616; -979; -153; 4830; 14747
-4931; -620; -965; -38; 4751; 14705
-4852; -629; -979; 78; 4595; 15201
-4805; -626; -886; 248; 4677; 15051
-4727; -596; -908; 193; 4797; 14956
-4679; -583; -1004; 316; 4458; 15510
-4651; -512; -909; 92; 4509; 15036
-4589; -534; -920; 130; 4411; 15223
-4566; -503; -940; -176; 3793; 15492
-4536; -510; -817; -136; 3711; 15233
-4427; -502; -778; -282; 4239; 15281
-4372; -503; -960; -556; 3911; 15433
-4319; -519; -930; -872; 4301; 15252
-4309; -607; -833; -768; 4712; 15684
-4318; -618; -1047; -817; 4110; 15460
-4322; -665; -1036; -427; 4188; 15326
-4359; -730; -808; -19; 4365; 15722
-4358; -679; -938; 177; 3927; 15751
-4350; -685; -1064; 390; 3470; 15607
-4343; -656; -803; 518; 3519; 15785
-4316; -585; -875; 386; 3865; 15767
-4298; -540; -1114; 177; 3461; 15731
-4327; -525; -931; 89; 3449; 15848
-4366; -497; -796; -14; 3772; 15818
-4386; -478; -980; -41; 3080; 15764
-4404; -486; -903; -77; 2685; 16024
-4424; -494; -682; -100; 2781; 15863
-4351; -474; -923; -391; 2526; 15569
-4331; -509; -986; -708; 2400; 15789
-4296; -562; -845; -708; 2934; 16041
-4323; -597; -1033; -721; 2381; 15831
-4331; -629; -937; -521; 2730; 15838
-4377; -693; -810; -118; 2732; 16093
-4384; -655; -1023; 11; 2630; 15964
-4444; -655; -1010; 27; 1626; 16051
-4450; -649; -819; 312; 1695; 16103
-4420; -610; -906; 420; 1643; 15810
-4377; -555; -1053; 422; 1433; 16115
-4363; -527; -936; 237; 1839; 16163
-4416; -501; -833; 132; 1995; 15976
-4431; -491; -955; -119; 1682; 16199
-4493; -489; -960; -293; 1533; 16121
-4531; -517; -840; -318; 1429; 15922
-4536; -501; -920; -535; 1462; 15912
-4580; -530; -964; -645; 895; 16113
-4598; -582; -914; -472; 837; 16128
-4634; -563; -976; -488; 423; 15763
-4575; -620; -997; -227; 564; 16208
-4620; -626; -901; -63; 403; 16118
-4616; -622; -927; 56; 403; 16137
-4648; -647; -965; 180; -233; 16182
-4639; -569; -822; -14; 334; 15992
-4658; -558; -937; 74; 236; 16001
-4652; -534; -1109; -41; -290; 16239
-4719; -550; -851; 156; -247; 15958
-4719; -554; -848; 445; 36; 16005
-4720; -457; -1193; 193; -966; 16186
-4750; -470; -919; 90; -1056; 15985
-4745; -453; -664; -189; -201; 15789
-4764; -437; -1038; -769; -1068; 15685
-4738; -507; -1071; -715; -677; 16126
-4851; -546; -799; -640; -907; 15705
-4828; -603; -941; -213; -1017; 15929
-4877; -605; -1045; 24; -2147; 16027
-4847; -599; -809; -65; -1884; 15974
-4822; -551; -950; -202; -2432; 16016
-4741; -525; -1067; -645; -2702; 15698
-4700; -594; -815; -578; -1501; 16114
-4724; -601; -967; -489; -1724; 15889
-4728; -627; -1133; -379; -1622; 15707
-4818; -685; -942; 43; -1257; 16181
-4884; -661; -1027; 260; -1408; 15886
-4968; -641; -1103; 314; -2158; 15573
-5023; -648; -839; 267; -1644; 15740
-5091; -613; -927; 208; -1293; 15899
-5208; -579; -1130; -58; -2105; 15547
-5294; -565; -876; -338; -1356; 15540
-5438; -594; -867; -419; -1636; 15716
-5519; -606; -1086; -603; -2385; 15373
-5630; -654; -1016; -518; -2983; 15346
-5698; -686; -777; -260; -2745; 15115
-5703; -713; -960; 89; -2257; 15559
-5823; -676; -1108; 147; -3074; 15388
-5912; -684; -848; 274; -2595; 15165
-6026; -666; -957; 319; -3202; 15123
-6072; -626; -1220; 171; -4070; 14900
-6148; -612; -836; 151; -3779; 14842
-6172; -614; -844; 230; -3278; 14974
-6260; -578; -1241; 38; -4451; 14728
-6307; -600; -1010; 150; -4451; 14851
-6403; -587; -856; 12; -4531; 14825
-6406; -551; -1210; -367; -5926; 14289
-6412; -594; -936; -475; -5714; 14400
-6388; -646; -772; -343; -5230; 14676
-6373; -648; -1221; -492; -5915; 14284
-6401; -707; -1101; -91; -6745; 14439
-6383; -714; -916; 184; -6170; 14257
-6392; -670; -1046; 299; -7610; 14241
-6305; -672; -878; 517; -6737; 14286
-6277; -612; -945; 591; -7010; 14127
-6207; -541; -1140; -48; -7396; 14175
-6254; -584; -935; -219; -7635; 14076
-6186; -606; -932; -338; -8423; 13819
-6084; -615; -1197; -444; -9256; 13848
-5973; -669; -893; 54; -9373; 13853
-5795; -683; -836; 420; -8380; 13636
-5680; -643; -1227; 507; -8522; 13979
-5673; -619; -997; 728; -8839; 14028
-5608; -570; -833; 519; -8150; 13350
-5601; -537; -1011; 200; -8638; 13566
-5578; -549; -971; 181; -8915; 13718
-5522; -534; -973; -17; -8952; 13222
-5420; -536; -1024; -242; -9002; 13358
-5425; -569; -914; -408; -9223; 13710
-5363; -608; -1020; -423; -9290; 13110
-5311; -617; -988; -582; -9692; 12918
-5292; -690; -798; -326; -9281; 13542
-5258; -700; -978; -224; -10116; 13034
-5142; -722; -1104; -180; -10463; 12686
-5047; -751; -888; 2; -9477; 13280
-5049; -771; -956; 557; -10324; 13380
-4937; -712; -1049; 613; -10039; 12603
-4926; -697; -794; 911; -8843; 13046
-5000; -656; -901; 1042; -9376; 13285
-5024; -565; -1169; 630; -10583; 12473
-4950; -566; -977; 503; -10536; 12204
-4894; -581; -634; 699; -9476; 12449
-4885; -542; -1082; 812; -10283; 13144
-4886; -467; -1102; 526; -10420; 12382
-4889; -473; -573; 354; -8441; 12148
-4995; -438; -977; 43; -9379; 12445
-5064; -429; -1186; -301; -9968; 12351
-5110; -513; -830; -239; -9299; 11763
-5147; -519; -892; -317; -8903; 11976
-5271; -526; -1137; -106; -9960; 12345
-5370; -576; -958; 56; -10156; 11393
-5402; -556; -791; -311; -9320; 11141
-5531; -601; -1054; -398; -10388; 11854
-5574; -647; -1173; -669; -11083; 11336
-5545; -711; -1016; -599; -10740; 10701
-5587; -794; -816; -227; -10409; 10803
-5640; -838; -968; 260; -10160; 11338
-5740; -804; -1034; 549; -10707; 11441
-5825; -798; -945; 786; -11076; 10797
-5873; -732; -898; 809; -11295; 10446
-5870; -714; -1041; 1027; -11606; 10489
-5906; -636; -1022; 1090; -12006; 10355
-5891; -608; -915; 1254; -11899; 10682
-5911; -556; -965; 1045; -12301; 10276
-5884; -519; -942; 873; -11419; 9979
-5953; -491; -1015; 753; -12083; 9750
-5962; -442; -1024; 421; -12177; 9715
-6008; -451; -879; 394; -12202; 9611
-6026; -423; -977; 291; -12558; 9853
-6045; -395; -1049; -271; -13202; 9485
-6010; -457; -884; -579; -12711; 9052
-6007; -507; -992; -770; -13140; 8957
-5984; -588; -1115; -772; -13595; 8840
-5968; -692; -979; -402; -13619; 8881
-5944; -734; -1004; -42; -13829; 8742
-5897; -730; -1018; -225; -14038; 8393
-5845; -827; -970; -77; -13726; 8388
-5823; -825; -1115; 209; -14537; 8260
-5733; -843; -1012; 342; -14431; 8171
-5691; -900; -873; 963; -14194; 8309
-5649; -823; -1007; 1297; -14903; 8486
-5590; -739; -1080; 1405; -15329; 8232
-5507; -670; -849; 1353; -15034; 7687
-5400; -596; -978; 1152; -15115; 7750
-5317; -542; -1090; 784; -15788; 7771
-5208; -555; -819; 678; -15175; 7583
-5128; -547; -910; 993; -15716; 7353
-4991; -490; -994; 921; -15715; 7634
-4924; -498; -793; 1033; -14873; 7721
-4872; -455; -917; 777; -14930; 7144
-4835; -430; -1147; 378; -15238; 6731
-4794; -440; -871; 252; -14894; 6960
-4761; -439; -779; 35; -14251; 6840
-4751; -467; -988; -31; -14341; 6846
-4801; -493; -981; 143; -15214; 6832
-4773; -509; -829; -251; -14922; 6291
-4738; -571; -915; -144; -14704; 6486
-4741; -614; -1025; -211; -15217; 6224
-4726; -655; -940; -382; -15031; 6088
-4714; -732; -895; -19; -15055; 6236
-4679; -763; -981; 407; -15513; 6010
-4652; -769; -962; 739; -15304; 5815
-4661; -760; -821; 1135; -15200; 5935
-4626; -732; -932; 1165; -14931; 5862
-4662; -661; -1092; 1352; -15443; 5452
-4644; -570; -950; 1139; -15967; 5085
-4579; -534; -822; 663; -15518; 5548
-4531; -539; -976; 703; -16089; 5229
-4490; -516; -870; 549; -15723; 5061
-4483; -558; -867; 805; -15931; 5336
-4428; -511; -955; 575; -16054; 4715
-4409; -496; -842; 97; -16071; 4634
-4394; -554; -903; -64; -16653; 4722
-4279; -579; -1041; -167; -17449; 4436
-4155; -659; -864; -26; -17342; 4200
-4015; -718; -838; 536; -17644; 4442
-3850; -711; -1036; 822; -17732; 4613
-3747; -662; -790; 1183; -17326; 4154
-3614; -652; -752; 1402; -16578; 4373
-3550; -565; -1051; 1221; -16951; 4225
-3494; -475; -941; 964; -17644; 3782
-3349; -444; -697; 355; -16740; 4104
-3251; -447; -954; 4; -17230; 3840
-3146; -495; -816; -193; -16834; 3604
-3096; -596; -690; 382; -16622; 4146
-2991; -610; -1028; 536; -16627; 3684
-2976; -620; -856; 769; -16618; 3274
-2935; -641; -688; 840; -15884; 3791
-2932; -623; -980; 989; -16418; 3850
-2894; -573; -1018; 971; -17227; 3097
-2825; -553; -681; 742; -16433; 3250
-2771; -533; -818; 813; -17124; 3570
-2679; -473; -900; 441; -17291; 3268
-2619; -515; -767; 725; -17375; 3334
-2478; -489; -948; 662; -17919; 2900
-2354; -474; -871; 428; -17888; 2606
-2257; -543; -553; 522; -17147; 2925
-2127; -507; -781; 363; -17325; 3376
-2044; -563; -977; 459; -17817; 2941
-1963; -610; -683; 647; -17166; 2551
-1863; -583; -786; 698; -16871; 2794
-1781; -575; -989; 818; -17537; 2824
-1715; -556; -682; 798; -16782; 2744
-1647; -553; -750; 1016; -16879; 2828
-1560; -513; -980; 998; -17202; 2566
-1526; -498; -653; 1094; -16587; 2559
-1471; -474; -683; 908; -16360; 2657
-1438; -396; -938; 562; -16970; 2466
-1407; -425; -698; 410; -16691; 2268
-1359; -466; -641; 309; -16385; 2172
-1294; -521; -845; 471; -16664; 2487
-1283; -550; -732; 663; -16345; 2412
-1267; -543; -711; 670; -16177; 2347
-1259; -515; -861; 473; -16595; 2457
-1254; -508; -767; 287; -16679; 2195
-1223; -528; -733; 357; -16707; 1974
-1158; -562; -841; 454; -16861; 2161
-1117; -585; -757; 756; -16743; 2227
-1079; -566; -733; 891; -16488; 1984
-1031; -558; -854; 1032; -16734; 2097
-1022; -547; -780; 4439; -32764; 3853
1381; -424; -1686; 3029; -13365; 1909
709; -670; 935; 5751; -10000; 3387
778; 0; -343; 1092; -10727; 2105
531; -8; -2360; -185; -15521; 2011
166; -290; 218; 44; -14555; 308
386; -288; 25; -126; -26499; 1984
905; -320; -1947; 638; -14384; 2324
334; -311; -33; 727; -18322; 1510
694; -224; -437; -1173; -13379; 1034
579; -433; -1287; -1174; -18343; 2330
680; -547; -613; 25; -16174; 1921
709; -617; -570; 395; -15244; 1903
669; -635; -1082; 935; -17065; 2697
658; -579; -648; 1066; -16254; 1944
680; -647; -580; 1214; -15576; 1948
665; -596; -863; 1507; -16475; 2542
678; -521; -659; 1551; -16108; 2099
661; -493; -569; 1099; -16203; 1969
671; -434; -561; 666; -16024; 2278
658; -416; -623; 247; -16089; 1984
655; -454; -667; 372; -16199; 2101
664; -464; -668; 552; -16126; 2059
656; -473; -711; 642; -16103; 2061
639; -490; -694; 1041; -16271; 2206
641; -471; -652; 1185; -16164; 2135
636; -451; -647; 1273; -16087; 2258
636; -404; -651; 1416; -16071; 2127
620; -343; -672; 1652; -16054; 2170
576; -266; -683; 1533; -16138; 2238
567; -191; -678; 1005; -16107; 2079
591; -178; -685; 402; -16427; 2045
596; -213; -579; 81; -15949; 1999
604; -243; -678; -81; -16089; 1975
596; -278; -770; -210; -16458; 1905
604; -325; -673; -318; -16177; 1974
604; -393; -653; -296; -16071; 2082
613; -449; -764; -256; -16298; 2038
622; -499; -798; 354; -16080; 2026
612; -511; -859; 971; -16214; 2174
616; -495; -810; 1192; -16339; 2165
616; -467; -674; 1256; -16195; 2143
605; -413; -609; 930; -16193; 2230
605; -371; -570; 490; -16093; 2305
582; -366; -590; 550; -16144; 2384
556; -390; -643; 1280; -16288; 2383
540; -151; -572; 560; -16159; 1633
590; -249; -629; -324; -16412; 1509
657; -325; -719; 79; -16152; 2263
636; -362; -808; 428; -15940; 2165
635; -451; -825; 680; -16390; 2038
632; -568; -753; 1079; -16331; 2039
652; -612; -644; 1243; -16125; 1932
650; -625; -551; 1030; -16306; 2231
662; -613; -506; 751; -15836; 2364
651; -620; -684; -61; -16176; 1451
667; -658; -745; 401; -16019; 2112
678; -651; -847; 69; -16414; 1947
656; -666; -786; 729; -16196; 2270
667; -647; -743; 1054; -16043; 1975
635; -557; -693; 971; -16169; 2266
632; -506; -637; 876; -16149; 2403
612; -449; -656; 511; -16130; 1947
622; -467; -655; 508; -16103; 2255
612; -471; -678; 515; -16181; 2128
607; -482; -702; 581; -16146; 1982
616; -479; -715; 696; -16170; 2169
607; -453; -712; 681; -16159; 2015
615; -450; -711; 604; -16195; 1992
634; -469; -704; 648; -16154; 2119
622; -466; -699; 571; -16147; 2032
621; -486; -710; 677; -16153; 2117
623; -480; -714; 726; -16149; 2181
626; -469; -712; 732; -16153; 2126
622; -450; -712; 629; -16178; 2045
633; -465; -707; 604; -16152; 2177
624; -479; -720; 582; -16169; 2037
628; -504; -714; 680; -16196; 2034
643; -535; -702; 748; -16179; 2108
629; -541; -678; 791; -16198; 2106
626; -534; -657; 752; -16172; 2106
629; -519; -644; 635; -16142; 2181
627; -509; -657; 543; -16104; 2160
613; -488; -696; 497; -16153; 2059
618; -477; -730; 589; -16130; 2149
616; -471; -738; 776; -16174; 2132
612; -488; -729; 845; -16207; 2051
619; -492; -674; 849; -16195; 2137
606; -486; -641; 699; -16166; 2117
613; -473; -628; 488; -16149; 2039
622; -486; -661; 404; -16128; 2034
626; -494; -708; 483; -16125; 2060
639; -499; -751; 640; -16165; 2136
633; -501; -758; 856; -16199; 2152
626; -493; -712; 976; -16229; 2142
630; -470; -657; 833; -16181; 2153
616; -461; -625; 581; -16136; 2124
617; -464; -640; 390; -16116; 2053
626; -478; -701; 341; -16101; 2091
621; -494; -769; 615; -16176; 2132
622; -509; -769; 870; -16226; 2061
629; -501; -724; 950; -16231; 2086
625; -482; -664; 830; -16190; 2111
631; -480; -619; 590; -16155; 2094
630; -485; -633; 418; -16118; 2065
638; -495; -678; 437; -16103; 2072
631; -498; -734; 603; -16133; 2150
627; -495; -750; 783; -16191; 2075
620; -502; -731; 866; -16224; 2089
627; -484; -677; 808; -16191; 2139
631; -474; -643; 668; -16123; 2159
622; -480; -641; 483; -16153; 2067
608; -467; -684; 379; -16085; 2058
617; -510; -745; 598; -16136; 2160
605; -492; -756; 748; -16192; 2053
619; -476; -733; 867; -16216; 2085
613; -477; -684; 853; -16207; 2144
615; -467; -650; 641; -16160; 2056
616; -470; -649; 497; -16143; 2066
623; -480; -676; 461; -16141; 2059
630; -507; -719; 562; -16149; 2134
631; -506; -738; 703; -16148; 2124
617; -492; -733; 842; -16190; 2138
610; -474; -704; 789; -16187; 2120
614; -453; -676; 687; -16130; 2097
602; -427; -664; 544; -16156; 2077
602; -456; -679; 539; -16148; 2036
611; -492; -699; 648; -16178; 2116
617; -515; -699; 686; -16190; 2036
632; -512; -692; 753; -16191; 2074
627; -525; -671; 754; -16195; 2084
625; -514; -654; 618; -16159; 2049
631; -503; -661; 543; -16129; 2104
632; -517; -683; 552; -16127; 2102
623; -510; -714; 607; -16159; 2088
624; -508; -722; 717; -16160; 2131
630; -486; -721; 791; -16173; 2119
621; -480; -693; 734; -16181; 2066
630; -465; -671; 630; -16161; 2073
630; -474; -671; 587; -16140; 2168
622; -478; -698; 537; -16141; 2009
619; -488; -724; 627; -16178; 2089
625; -492; -723; 727; -16195; 2156
619; -497; -692; 801; -16185; 2142
613; -481; -678; 770; -16165; 2119
619; -469; -659; 617; -16143; 2068
627; -465; -669; 527; -16126; 2086
615; -456; -688; 525; -16137; 2084
618; -484; -719; 619; -16158; 2046
619; -481; -730; 739; -16180; 2085
628; -485; -709; 811; -16202; 2118
625; -493; -684; 749; -16195; 2070
619; -479; -666; 625; -16157; 2099
623; -485; -680; 530; -16127; 2073
630; -501; -697; 449; -16107; 2059
627; -494; -721; 646; -16164; 2161
627; -503; -728; 726; -16187; 2051
624; -512; -715; 836; -16202; 2123
620; -502; -679; 796; -16191; 2131
627; -485; -654; 654; -16158; 2103
626; -476; -655; 536; -16146; 2085
620; -476; -679; 491; -16116; 2077
625; -484; -711; 510; -16147; 2052
627; -490; -737; 672; -16172; 2141
608; -482; -746; 787; -16192; 2076
614; -494; -713; 877; -16225; 2131
622; -491; -663; 798; -16180; 2136
619; -476; -629; 635; -16218; 2095
621; -469; -648; 502; -16079; 2152
618; -464; -686; 410; -16094; 2013
625; -473; -732; 538; -16148; 2037
625; -498; -750; 748; -16182; 2122
618; -500; -743; 877; -16233; 2139
606; -495; -696; 903; -16220; 2103
620; -480; -641; 719; -16166; 2110
627; -478; -625; 499; -16117; 2115
625; -474; -664; 389; -16091; 2070
624; -479; -717; 424; -16123; 2040
622; -484; -757; 669; -16164; 2098
619; -488; -758; 854; -16200; 2129
615; -490; -717; 951; -16232; 2114
629; -484; -658; 813; -16206; 2085
622; -461; -614; 548; -16160; 2113
618; -454; -632; 409; -16065; 2106
624; -480; -702; 383; -16108; 2096
623; -506; -744; 631; -16142; 2108
629; -509; -768; 876; -16205; 2107
627; -502; -718; 983; -16222; 2139
621; -493; -653; 870; -16183; 2117
622; -484; -607; 587; -16158; 2083
626; -463; -612; 358; -16080; 2088
617; -485; -696; 342; -16094; 2086
622; -488; -755; 547; -16152; 2064
627; -507; -780; 809; -16195; 2077
622; -493; -746; 970; -16219; 2150
608; -453; -668; 953; -16238; 2110
584; -393; -584; 712; -16157; 2107
615; -464; -611; 447; -16111; 2108
624; -490; -664; 351; -16082; 2069
624; -495; -724; 452; -16111; 2099
617; -509; -771; 712; -16192; 2113
628; -508; -759; 950; -16220; 2100
624; -499; -705; 939; -16221; 2107
629; -481; -644; 758; -16182; 2117
625; -472; -615; 497; -16142; 2086
624; -485; -647; 359; -16097; 2072
622; -500; -706; 453; -16111; 2089
624; -506; -756; 636; -16176; 2083
628; -494; -763; 859; -16205; 2136
631; -495; -730; 941; -16237; 2146
623; -489; -673; 798; -16188; 2067
622; -481; -635; 581; -16146; 2076
628; -472; -650; 429; -16110; 2088
621; -488; -698; 424; -16114; 2110
616; -495; -746; 580; -16164; 2110
617; -499; -758; 798; -16193; 2092
623; -491; -734; 895; -16194; 2138
616; -490; -687; 842; -16201; 2103
623; -494; -643; 696; -16174; 2095
629; -491; -626; 503; -16134; 2113
625; -479; -657; 416; -16123; 2108
629; -491; -713; 498; -16119; 2078
628; -489; -763; 661; -16166; 2101
630; -485; -766; 837; -16208; 2098
618; -465; -706; 862; -16238; 2052
627; -482; -661; 786; -16224; 2076
630; -502; -640; 597; -16140; 2080
638; -508; -647; 480; -16145; 2053
622; -493; -682; 495; -16116; 2102
625; -496; -725; 550; -16139; 2079
628; -495; -741; 702; -16173; 2124
623; -507; -735; 835; -16202; 2147
624; -506; -704; 861; -16205; 2123
621; -494; -653; 741; -16177; 2116
625; -470; -633; 550; -16123; 2114
626; -477; -655; 451; -16122; 2082
623; -482; -701; 467; -16135; 2076
623; -500; -744; 591; -16137; 2055
620; -489; -756; 868; -16249; 2177
614; -490; -718; 836; -16185; 2112
629; -470; -666; 804; -16192; 2102
620; -483; -633; 656; -16172; 2125
632; -488; -636; 473; -16132; 2084
625; -490; -671; 433; -16108; 2113
619; -495; -722; 522; -16141; 2067
626; -492; -751; 690; -16176; 2100
626; -504; -746; 846; -16205; 2175
611; -501; -703; 894; -16219; 2096
621; -486; -649; 784; -16202; 2102
628; -481; -629; 548; -16147; 2092
626; -504; -657; 476; -16135; 2086
619; -488; -701; 430; -16123; 2104
606; -480; -731; 667; -16149; 2120
622; -477; -748; 777; -16195; 2091
634; -485; -734; 822; -16218; 2156
614; -492; -701; 859; -16192; 2161
619; -479; -658; 726; -16177; 2088
608; -480; -639; 623; -16154; 2132
612; -473; -643; 507; -16126; 2072
616; -460; -689; 473; -16150; 2028
621; -457; -731; 545; -16155; 2065
621; -471; -752; 700; -16172; 2125
618; -477; -742; 784; -16218; 2068
618; -479; -709; 796; -16210; 2115
626; -476; -673; 754; -16198; 2128
620; -494; -649; 655; -16147; 2106
612; -464; -649; 549; -16152; 2059
617; -472; -670; 507; -16117; 2060
608; -459; -705; 596; -16141; 2101
612; -472; -736; 660; -16185; 2067
631; -489; -733; 800; -16198; 2153
626; -494; -702; 786; -16205; 2084
619; -482; -672; 763; -16190; 2130
621; -485; -643; 622; -16146; 2101
626; -482; -652; 518; -16137; 2029
630; -492; -683; 507; -16141; 2079
629; -498; -712; 544; -16138; 2098
629; -498; -733; 716; -16178; 2139
629; -493; -724; 810; -16192; 2105
623; -494; -688; 778; -16205; 2097
608; -467; -668; 736; -16185; 2140
622; -465; -657; 531; -16144; 2076
622; -481; -672; 445; -16115; 2021
619; -500; -711; 532; -16124; 2098
631; -493; -740; 663; -16174; 2117
631; -494; -751; 834; -16206; 2110
616; -482; -703; 830; -16201; 2087
613; -470; -667; 696; -16171; 2072
625; -471; -654; 571; -16157; 2105
623; -482; -675; 457; -16116; 2063
623; -503; -712; 536; -16134; 2115
627; -507; -731; 693; -16180; 2071
626; -507; -732; 810; -16196; 2107
623; -502; -696; 810; -16211; 2153
620; -471; -656; 710; -16202; 2053
624; -504; -660; 577; -16089; 2103
639; -509; -675; 462; -16066; 2093
624; -514; -705; 553; -16128; 2081
629; -513; -735; 665; -16166; 2117
624; -500; -727; 723; -16172; 2092
623; -499; -712; 768; -16183; 2111
627; -492; -682; 715; -16184; 2095
632; -479; -673; 589; -16144; 2086
637; -496; -689; 540; -16149; 2078
633; -511; -711; 565; -16148; 2116
628; -506; -720; 687; -16169; 2171
617; -506; -711; 793; -16200; 2152
620; -491; -686; 834; -16199; 2074
628; -481; -653; 782; -16173; 2191
614; -455; -652; 573; -16184; 2083
618; -466; -671; 472; -16135; 2117
627; -487; -715; 538; -16140; 2105
621; -484; -742; 675; -16170; 2129
622; -492; -738; 813; -16209; 2097
625; -488; -713; 816; -16204; 2064
626; -480; -667; 690; -16181; 2070
632; -471; -655; 524; -16133; 2077
635; -487; -682; 450; -16109; 2065
631; -517; -722; 507; -16138; 2093
628; -531; -748; 730; -16178; 2127
627; -519; -735; 819; -16227; 2107
620; -489; -698; 815; -16209; 2162
631; -479; -677; 703; -16207; 2078
638; -500; -668; 509; -16162; 2082
636; -505; -689; 540; -16135; 2133
632; -501; -711; 592; -16159; 2067
622; -513; -722; 732; -16178; 2119
613; -513; -711; 841; -16189; 2190
610; -494; -678; 806; -16183; 2148
612; -473; -657; 650; -16166; 2076
613; -478; -654; 557; -16144; 2079
617; -469; -683; 448; -16115; 2106
609; -493; -717; 572; -16156; 2088
615; -506; -734; 745; -16214; 2060
622; -502; -726; 833; -16247; 2177
632; -494; -690; 835; -16184; 2209
621; -459; -648; 671; -16167; 2067
632; -472; -645; 492; -16141; 2080
629; -485; -675; 478; -16128; 2080
623; -486; -726; 492; -16132; 2093
634; -488; -761; 538; -16145; 2111
636; -491; -786; 623; -16178; 2064
650; -491; -791; 691; -16165; 2090
633; -509; -769; 976; -16217; 2149
620; -522; -711; 1198; -16268; 2120
629; -493; -611; 904; -16246; 2102
626; -479; -546; 436; -16095; 2142
616; -480; -580; 101; -16013; 2080
615; -478; -699; 430; -16113; 2122
633; -513; -770; 633; -16169; 2202
634; -509; -794; 837; -16259; 2058
626; -470; -740; 854; -16181; 2058
624; -476; -704; 794; -16164; 2119
627; -483; -667; 689; -16209; 2145
610; -491; -655; 574; -16096; 2126
600; -501; -676; 508; -16109; 2094
600; -494; -719; 461; -16164; 2021
613; -506; -748; 588; -16135; 2082
613; -495; -768; 687; -16152; 2150
595; -480; -769; 690; -16194; 2135
585; -492; -744; 856; -16174; 2131
579; -467; -704; 860; -16196; 2213
577; -462; -679; 661; -16116; 2114
580; -488; -709; 292; -16154; 1907
565; -516; -758; 152; -16152; 2031
552; -517; -801; 112; -16275; 2045
563; -532; -801; 79; -16304; 1925
564; -624; -715; 240; -16388; 1900
597; -687; -636; 465; -16145; 2025
616; -714; -647; 825; -16036; 2314
608; -688; -675; 942; -16131; 2179
591; -643; -663; 974; -16128; 2052
583; -617; -681; 1135; -16097; 2196
576; -580; -704; 1107; -16151; 2185
572; -563; -699; 1002; -16092; 2244
559; -547; -725; 1022; -16043; 2363
542; -513; -798; 664; -16193; 1975
545; -531; -848; 662; -16655; 1883
610; -514; -871; 758; -17876; 1751
753; -549; -640; 904; -17646; 1983
843; -547; -593; 1210; -17809; 2220
987; -459; -812; 1131; -18292; 1923
1090; -435; -659; 1072; -18454; 1980
1249; -404; -578; 918; -18455; 2092
1398; -378; -743; 672; -19116; 2115
1589; -365; -699; 623; -19508; 1997
1818; -378; -559; 691; -19487; 1880
2069; -349; -667; 574; -19611; 1821
2316; -354; -665; 278; -19602; 1846
2534; -388; -483; 112; -19020; 2233
2740; -448; -546; -21; -18759; 2350
2935; -529; -736; 34; -19074; 2155
3100; -583; -632; 455; -18952; 2161
3320; -628; -618; 1040; -18729; 2111
3505; -583; -660; 1376; -18626; 2200
3655; -521; -534; 1652; -18476; 2322
3825; -420; -515; 1485; -18255; 2483
3964; -371; -567; 1221; -18463; 2587
4115; -321; -512; 930; -18567; 2555
4280; -296; -486; 605; -18710; 2478
4476; -285; -546; 397; -19039; 2609
4684; -297; -501; 327; -19042; 2777
4891; -321; -455; 383; -18686; 2701
5082; -350; -488; 488; -18394; 2735
5242; -357; -517; 595; -18395; 2761
5379; -326; -417; 236; -18530; 2680
5563; -346; -416; 87; -18794; 3102
5773; -371; -471; -7; -18906; 3300
5970; -430; -461; 63; -18773; 3006
6198; -528; -442; 357; -18351; 2873
6415; -587; -451; 954; -18131; 3282
6541; -593; -343; 1232; -17366; 3500
6666; -553; -314; 1542; -16962; 3878
6751; -479; -443; 1761; -17069; 4241
6866; -371; -539; 1887; -17156; 4127
6948; -241; -437; 1784; -17041; 3983
7034; -159; -324; 1575; -16592; 4115
7114; -16; -378; 912; -16845; 4082
7190; -2; -363; 172; -17115; 3888
7261; -34; -114; -330; -17142; 4439
7398; -88; -142; -923; -16876; 4698
7560; -229; -475; -1007; -17208; 4472
7684; -389; -391; -775; -16953; 4244
7855; -492; -358; -266; -16088; 4832
7897; -538; -460; 2; -16258; 5040
7950; -561; -311; 180; -15793; 4845
7972; -553; -171; 284; -15430; 5398
8028; -566; -420; 404; -15787; 5844
8078; -595; -457; 656; -16123; 5729
8181; -613; -324; 909; -15719; 5622
8261; -607; -423; 1266; -15729; 5930
8346; -539; -351; 1408; -15211; 6210
8359; -462; -169; 1724; -14505; 6512
8392; -354; -382; 1589; -14408; 6602
8386; -241; -370; 1150; -14455; 6730
8352; -196; -119; 667; -14028; 6637
8325; -197; -219; 487; -13784; 6573
8335; -194; -496; 242; -14479; 7358
8395; -235; -392; 269; -13923; 7381
8345; -278; -213; 387; -13447; 7132
8361; -241; -424; 245; -13272; 7418
8293; -252; -337; 190; -12992; 7879
8234; -283; -160; 190; -12194; 7935
8148; -272; -395; -8; -12712; 7920
8087; -307; -450; 26; -13071; 8214
8043; -377; -165; 18; -12252; 8446
7996; -363; -263; 30; -11928; 8700
7938; -361; -546; -73; -12254; 8858
7860; -411; -384; -41; -12057; 8755
7756; -421; -254; 55; -11888; 8811
7713; -420; -471; 76; -12091; 9162
7650; -425; -400; -27; -12276; 9146
7619; -495; -202; 250; -11259; 9629
7558; -481; -434; 320; -11384; 9770
7447; -489; -464; 291; -11945; 9492
7375; -534; -216; 804; -11384; 10159
7366; -451; -432; 663; -11484; 10274
7310; -383; -498; 407; -11642; 10005
7243; -411; -260; 679; -10532; 10468
7178; -341; -486; 258; -10935; 10388
7089; -353; -459; 359; -10898; 10441
6982; -411; -213; 528; -10653; 10759
6943; -361; -482; 163; -11191; 10964
6912; -349; -534; -7; -11588; 10893
6890; -389; -236; -12; -10699; 10983
6883; -394; -455; -211; -10864; 11088
6817; -450; -492; -38; -11324; 11056
6788; -486; -221; 249; -10578; 11360
6785; -459; -456; 360; -11130; 11662
6817; -442; -474; 380; -10779; 11585
6769; -451; -212; 707; -9804; 11866
6777; -370; -570; 522; -10351; 11934
6732; -347; -592; 523; -10007; 11701
6602; -368; -142; 783; -9378; 12044
6580; -281; -398; 626; -9571; 12244
6543; -256; -667; 404; -10336; 12190
6505; -253; -185; 196; -9422; 12146
6472; -241; -336; 77; -9204; 12424
6465; -208; -776; -541; -10163; 12216
6432; -301; -273; -506; -9052; 12601
6339; -351; -149; -642; -8933; 12522
6361; -416; -686; -654; -9665; 12435
6317; -463; -362; -515; -9421; 12804
6291; -528; -139; -184; -8006; 13289
6284; -481; -820; -144; -9356; 12768
6273; -503; -620; 217; -9158; 13091
6169; -525; -33; 375; -7701; 13160
6138; -478; -492; 745; -8178; 13479
6125; -440; -740; 542; -8687; 13264
6034; -448; -195; 709; -7134; 13354
5936; -393; -284; 725; -7177; 13906
5885; -308; -801; 278; -7833; 13676
5792; -303; -516; 10; -7321; 13487
5674; -329; -254; -172; -7538; 13745
5648; -328; -539; -588; -8169; 13944
5635; -375; -496; -587; -8196; 13624
5621; -457; -309; -427; -7367; 13851
5593; -494; -411; -181; -7478; 14233
5586; -502; -600; -25; -7639; 13979
5544; -529; -547; 187; -7318; 13898
5546; -523; -494; 370; -7042; 14452
5470; -462; -460; 435; -6839; 14485
5391; -442; -354; 592; -6831; 14178
5367; -399; -394; 719; -6757; 14504
5354; -347; -571; 501; -6682; 14711
5290; -320; -502; 423; -6980; 14258
5279; -317; -409; 261; -6442; 14556
5238; -268; -523; -13; -6195; 14677
5223; -268; -593; -194; -6157; 14633
5141; -298; -499; -403; -6220; 14534
5056; -314; -394; -481; -6414; 14712
5049; -367; -418; -474; -6156; 14879
5045; -402; -569; -427; -6554; 14708
5022; -428; -393; -451; -6180; 14812
4985; -479; -340; -322; -5543; 15267
5005; -466; -761; -404; -6844; 14625
5062; -481; -697; -338; -6122; 14769
4977; -540; -342; -50; -5589; 15324
4981; -545; -459; 194; -6207; 15070
4976; -531; -515; 332; -6099; 14909
4971; -510; -379; 565; -5973; 15281
5026; -458; -566; 586; -6014; 15211
5050; -412; -583; 623; -6254; 15093
5074; -369; -382; 633; -5745; 15337
5094; -314; -454; 485; -5398; 15195
5126; -284; -603; 247; -5450; 15302
5114; -274; -474; -20; -5339; 15457
5096; -278; -347; -206; -5391; 15290
5160; -283; -476; -389; -5506; 15282
5189; -272; -583; -613; -5805; 15468
5223; -316; -370; -820; -5225; 15313
5256; -381; -369; -627; -5083; 15491
5357; -393; -723; -720; -5336; 15414
5386; -459; -694; -452; -5309; 15380
5412; -493; -402; -206; -5337; 15297
5456; -517; -409; 17; -4987; 15618
5528; -512; -508; 224; -5363; 15356
5616; -496; -446; 407; -4988; 15524
5654; -474; -386; 454; -4665; 15740
5717; -433; -438; 450; -4526; 15635
5793; -375; -524; 255; -4273; 15430
5839; -352; -494; 95; -4037; 15951
5851; -344; -415; -20; -4136; 15479
5887; -344; -411; -48; -4318; 15502
5971; -336; -452; -276; -4376; 15937
6051; -354; -428; -161; -4136; 15456
6123; -355; -377; -144; -3685; 15530
6168; -370; -393; -191; -3250; 15976
6235; -384; -544; -137; -3129; 15438
6259; -383; -540; -174; -3148; 15639
6239; -411; -251; -141; -2973; 16000
6296; -420; -312; -62; -2587; 15576
6349; -403; -564; -85; -3190; 15708
6391; -394; -402; -91; -2781; 15876
6435; -408; -307; 41; -2506; 15766
6527; -369; -549; -40; -2117; 15675
6552; -377; -522; -116; -2185; 16007
6552; -399; -268; 53; -1835; 15611
6564; -365; -333; -28; -2066; 15756
6672; -359; -544; -115; -2460; 16057
6711; -370; -308; -124; -1407; 15577
6716; -363; -177; -90; -900; 15951
6767; -346; -604; -268; -1667; 15740
6808; -371; -560; -309; -1195; 15307
6812; -424; -232; -247; -682; 16138
6852; -424; -408; -127; -846; 15675
6858; -409; -445; -79; -1064; 15440
6935; -411; -312; 95; -945; 16233
7007; -371; -462; 37; -926; 15481
7084; -365; -465; 52; -849; 15584
7149; -369; -328; -11; -637; 16031
7226; -361; -340; -18; -581; 15322
7306; -337; -356; -153; -341; 15520
7377; -335; -281; -379; -27; 15878
7464; -340; -432; -347; 247; 15179
7530; -355; -572; -596; -4; 15343
7584; -422; -333; -341; 172; 15757
7633; -437; -249; -226; 600; 15192
7727; -425; -508; -96; -105; 15569
7846; -418; -374; -67; 475; 15515
7932; -411; -242; -44; 729; 15278
8068; -383; -527; -47; 190; 15030
8154; -391; -429; 94; 151; 15011
8303; -399; -191; 88; 860; 15276
8463; -388; -431; 293; 1059; 15008
8531; -349; -323; 288; 1264; 14884
8691; -339; -299; 137; 1719; 15031
8780; -310; -474; 124; 1381; 14553
8872; -283; -231; -91; 1714; 14630
9026; -293; -217; -167; 2470; 14952
9122; -284; -397; -415; 2596; 14380
9195; -307; -288; -625; 2897; 14294
9263; -347; -251; -541; 3127; 14439
9346; -371; -356; -535; 3087; 14238
9448; -425; -238; -260; 3824; 14235
9482; -447; -133; -33; 4478; 14187
9564; -425; -418; -27; 4095; 13861
9636; -417; -469; -12; 4481; 14076
9676; -397; -206; -14; 5345; 14182
9715; -411; -273; 59; 6051; 13867
9678; -387; -370; -1; 6164; 13709
9653; -391; -223; -145; 6746; 13977
9574; -374; -148; -187; 7301; 13810
9537; -355; -347; -542; 7413; 13596
9495; -401; -414; -372; 7006; 13580
9457; -416; -292; -453; 7872; 13181
9350; -473; -191; -56; 8064; 13530
9376; -488; -387; 113; 8736; 13712
9246; -481; -329; 167; 9295; 13333
9085; -497; -105; 390; 10096; 13388
8931; -442; -388; 404; 9915; 13220
8773; -390; -433; 402; 9601; 13363
8648; -371; -189; 461; 10284; 13505
8540; -339; -363; 222; 10253; 13139
8387; -303; -452; 127; 9841; 13046
8252; -289; -263; 157; 10159; 13250
8191; -287; -333; 19; 10849; 13052
8048; -275; -427; -102; 10975; 12979
7898; -288; -360; -77; 11221; 13031
7755; -276; -423; -121; 11303; 12814
7562; -265; -359; -59; 10886; 12740
7459; -286; -306; -24; 11271; 12877
7312; -288; -271; -167; 11411; 12776
7217; -313; -330; -301; 11622; 12565
7127; -311; -503; -468; 10977; 12346
7003; -363; -465; -555; 10445; 12587
6954; -375; -319; -424; 10385; 12335
6924; -393; -384; -376; 10291; 12323
6950; -411; -459; -432; 10554; 12340
6892; -439; -302; -223; 10794; 12168
6927; -433; -472; -349; 11089; 11952
6859; -455; -594; -306; 10202; 12002
6833; -467; -323; -289; 10226; 11819
6878; -493; -308; -145; 10580; 11769
6871; -500; -447; 108; 9789; 11779
6989; -504; -448; 206; 10200; 11526
7044; -484; -495; 261; 9769; 11176
7176; -461; -587; 345; 10037; 11322
7190; -442; -329; 439; 10125; 11208
7310; -433; -331; 641; 10919; 11076
7359; -402; -488; 575; 10881; 10813
7377; -335; -338; 542; 11714; 11008
7362; -311; -300; 561; 11663; 10747
7401; -233; -548; 67; 10655; 10342
7427; -241; -345; -74; 10630; 10485
7544; -255; -217; -189; 10804; 10177
7697; -277; -395; -226; 11546; 10042
7668; -283; -282; -221; 11557; 9995
7811; -313; -448; -347; 12208; 9575
7779; -323; -477; -343; 11277; 9572
7848; -343; -291; -459; 11588; 9727
7943; -359; -309; -695; 11787; 9329
8016; -400; -403; -857; 12014; 9224
8096; -441; -437; -1193; 12130; 8890
8172; -503; -378; -1313; 12978; 8684
8150; -629; -301; -1101; 13115; 8700
8186; -726; -393; -338; 13765; 8702
8124; -766; -314; 481; 14345; 8392
8103; -746; -407; 935; 14973; 8410
7987; -684; -478; 1070; 14758; 8473
7894; -598; -435; 1132; 14987; 8253
7835; -521; -434; 1284; 15296; 8236
7757; -432; -448; 1389; 15871; 8245
7607; -337; -408; 1360; 16345; 8013
7445; -276; -387; 1309; 16432; 7888
7269; -200; -403; 889; 16412; 7795
7098; -170; -369; 214; 16639; 7559
6933; -185; -338; 84; 16696; 7599
6790; -184; -428; -71; 16809; 7616
6641; -165; -534; -65; 16708; 7497
6469; -198; -449; -246; 16743; 7297
6280; -243; -339; -43; 16524; 7402
6174; -217; -452; -102; 16321; 7118
6037; -214; -458; -347; 15730; 6897
5972; -264; -346; -536; 16235; 6952
5883; -317; -422; -650; 16159; 6740
5832; -368; -601; -736; 15979; 6530
5726; -432; -470; -573; 16136; 6927
5641; -483; -320; -535; 16691; 6569
5541; -524; -520; -397; 16609; 6231
5402; -563; -589; -20; 16022; 6527
5325; -564; -368; 162; 16561; 6494
5225; -563; -331; 299; 16596; 6127
5193; -539; -689; 677; 16312; 6298
5092; -475; -720; 414; 15691; 5919
5014; -484; -380; 526; 16113; 6171
4965; -471; -428; 685; 16034; 6011
4923; -444; -651; 698; 15430; 5522
4896; -431; -521; 792; 15402; 5802
4887; -386; -356; 803; 15891; 5914
4864; -324; -581; 644; 15695; 5571
4870; -273; -645; 450; 15740; 5321
4835; -266; -467; 376; 16317; 5484
4777; -274; -472; 243; 16354; 5449
4714; -279; -515; 80; 16142; 5152
4647; -268; -456; -58; 16058; 4857
4633; -266; -493; -116; 16082; 5081
4614; -289; -539; -457; 15877; 4891
4578; -335; -421; -613; 16237; 4792
4550; -391; -451; -519; 16526; 4725
4535; -428; -647; -430; 16613; 4483
4448; -470; -605; -455; 16695; 4456
4371; -548; -461; -200; 17180; 4618
4275; -569; -546; -66; 17246; 4499
4171; -578; -603; 39; 16954; 4580
4097; -587; -502; 351; 17140; 4544
3996; -572; -518; 513; 17342; 4268
3916; -555; -618; 555; 17285; 4199
3806; -544; -581; 595; 17274; 4279
3712; -533; -554; 801; 17367; 4282
3628; -491; -594; 913; 17600; 4167
3524; -434; -591; 1106; 17835; 4336
3361; -367; -514; 1134; 18012; 4218
3254; -353; -564; 874; 17984; 3983
3093; -263; -574; 408; 17730; 3820
2965; -253; -538; -56; 17562; 3864
2855; -282; -565; -344; 17467; 3903
2744; -320; -618; -411; 17102; 3738
2680; -361; -613; -321; 16872; 3578
2605; -426; -573; -87; 16663; 3687
2575; -434; -607; -1; 16506; 3698
2536; -434; -613; 16; 16438; 3620
2520; -442; -567; -25; 16796; 3666
2460; -468; -563; -120; 16874; 3405
2412; -487; -660; -140; 16741; 3229
2376; -568; -667; -41; 16531; 3335
2341; -598; -591; 166; 16773; 3480
2280; -571; -622; 514; 16532; 3423
2257; -539; -662; 553; 16270; 3433
2240; -516; -620; 625; 16236; 3484
2237; -472; -623; 521; 16168; 3257
2234; -444; -675; 333; 15960; 3130
2249; -444; -641; 321; 16017; 3165
2257; -455; -583; 263; 16287; 3107
2251; -467; -641; 212; 16298; 3113
2243; -470; -660; 177; 16204; 3024
2234; -474; -620; 114; 16239; 3002
2224; -490; -632; 148; 16181; 3091
2214; -490; -645; 145; 16051; 2920
2234; -488; -608; 229; 16145; 2853
2255; -533; -613; 1598; 31113; 2153
1044; -801; 686; -1047; 23512; -3158
226; -966; -2339; 3129; 13957; 4868
205; -326; -1224; 4647; 6618; 2992
904; -386; 932; 3210; 15718; 1704
1078; -44; -1098; -3036; 28556; 5771
228; 63; -1399; 546; 9930; 3282
640; -393; -270; 1027; 12286; 3024
753; -254; -82; -1411; 23922; 4773
560; -163; -1018; -1078; 13192; 1191
639; -552; -1135; -237; 15657; 4456
565; -362; -305; -1458; 16534; 2916
683; -680; -462; 663; 15886; 2766
581; -596; -499; 1167; 16700; 3704
612; -441; -627; 452; 16225; 2186
603; -514; -755; 469; 16357; 3129
566; -445; -707; 18; 15837; 3168
628; -492; -670; -89; 16236; 2397
582; -558; -645; 510; 16190; 3245
570; -514; -613; 581; 16213; 3027
631; -506; -686; 483; 16516; 2708
557; -449; -734; 239; 15898; 3278
608; -456; -700; 222; 16127; 2765
615; -518; -682; 292; 16487; 2896
586; -488; -687; 232; 15845; 3076
623; -500; -655; 182; 16305; 2802
616; -503; -671; 589; 16340; 3063
612; -483; -721; 383; 16201; 2973
636; -475; -753; 250; 16261; 2816
606; -482; -756; 101; 16050; 2990
620; -482; -706; 8; 16063; 2837
628; -510; -651; 274; 16232; 2882
609; -511; -634; 451; 16187; 3039
629; -503; -676; 506; 16306; 2912
623; -479; -740; 401; 16233; 2963
615; -461; -760; 125; 16081; 2922
618; -489; -744; 68; 16127; 2843
623; -517; -699; 198; 16077; 3006
633; -514; -655; 315; 16162; 2940
628; -485; -654; 466; 16353; 2864
623; -499; -714; 418; 16261; 3011
619; -482; -751; 220; 16149; 2911
610; -475; -743; 101; 16107; 2909
608; -495; -703; 130; 16064; 2951
626; -496; -655; 281; 16166; 2932
630; -497; -650; 476; 16274; 2975
623; -486; -683; 458; 16260; 2975
621; -471; -730; 311; 16211; 2931
622; -466; -747; 158; 16114; 2903
617; -490; -720; 110; 16116; 2902
622; -507; -681; 248; 16147; 2938
618; -505; -666; 355; 16210; 2949
615; -469; -669; 407; 16243; 2978
624; -496; -719; 355; 16177; 2977
640; -488; -727; 202; 16135; 2949
641; -487; -707; 153; 16183; 2837
631; -509; -694; 276; 16158; 2944
619; -493; -687; 345; 16247; 2943
623; -499; -710; 385; 16216; 2937
615; -492; -748; 309; 16150; 2996
620; -480; -737; 151; 16108; 2900
623; -488; -714; 150; 16134; 2920
619; -497; -677; 283; 16180; 2965
628; -504; -670; 396; 16224; 2955
615; -495; -699; 414; 16241; 2970
611; -479; -721; 333; 16201; 2978
623; -475; -735; 196; 16116; 2922
629; -482; -707; 147; 16071; 2902
629; -493; -679; 223; 16156; 2931
623; -499; -654; 347; 16180; 2974
622; -474; -664; 373; 16226; 2964
632; -472; -689; 336; 16228; 2922
620; -468; -722; 278; 16186; 2921
618; -475; -729; 182; 16149; 2905
621; -495; -709; 179; 16118; 2910
626; -518; -685; 269; 16159; 2960
626; -504; -684; 333; 16229; 2942
618; -494; -686; 338; 16196; 2978
618; -481; -702; 322; 16167; 2979
630; -480; -710; 273; 16197; 2912
620; -488; -709; 257; 16151; 2967
612; -478; -693; 243; 16140; 2889
631; -490; -702; 297; 16184; 2950
615; -496; -709; 325; 16167; 2976
612; -487; -709; 279; 16154; 2976
605; -481; -703; 272; 16162; 2950
619; -489; -703; 241; 16149; 2947
628; -485; -694; 238; 16164; 2923
629; -489; -686; 320; 16206; 2933
630; -488; -695; 316; 16203; 2917
627; -486; -708; 292; 16180; 2943
625; -495; -723; 268; 16187; 2909
621; -496; -724; 247; 16141; 2941
614; -500; -711; 242; 16134; 2954
621; -490; -701; 288; 16183; 2939
629; -491; -695; 299; 16181; 2946
616; -454; -693; 335; 16232; 2954
616; -483; -709; 301; 16204; 2928
590; -414; -681; 250; 16191; 2954
621; -514; -722; 232; 16146; 2930
616; -499; -719; 230; 16137; 2933
622; -505; -704; 279; 16190; 2936
607; -498; -709; 308; 16181; 2964
619; -490; -713; 290; 16159; 2990
624; -481; -701; 302; 16203; 2940
630; -475; -713; 276; 16156; 2960
628; -468; -715; 248; 16165; 2931
629; -476; -708; 240; 16198; 2899
631; -498; -696; 299; 16159; 2994
626; -480; -705; 273; 16172; 2956
644; -511; -735; 274; 16190; 2908
635; -503; -721; 300; 16206; 2906
633; -487; -718; 224; 16192; 2858
621; -485; -722; 245; 16195; 2914
612; -499; -731; 216; 16148; 2913
617; -503; -718; 207; 16164; 2929
611; -497; -710; 274; 16159; 2963
613; -494; -705; 305; 16167; 2970
620; -486; -699; 280; 16180; 2954
630; -475; -713; 261; 16196; 2928
626; -478; -722; 282; 16195; 2932
623; -488; -710; 237; 16173; 2931
618; -477; -706; 237; 16168; 2937
615; -460; -696; 269; 16133; 2932
620; -480; -687; 254; 16174; 2908
622; -483; -683; 293; 16172; 2938
625; -485; -700; 293; 16202; 2931
618; -484; -709; 257; 16161; 2955
627; -490; -711; 247; 16168; 2953
629; -482; -710; 228; 16141; 2949
636; -490; -693; 262; 16175; 2943
627; -486; -702; 312; 16194; 2933
630; -480; -706; 303; 16204; 2940
624; -486; -710; 255; 16192; 2923
623; -487; -718; 219; 16166; 2922
626; -488; -710; 207; 16158; 2942
629; -501; -703; 229; 16178; 2935
624; -487; -696; 275; 16181; 2946
610; -482; -694; 267; 16178; 2952
609; -474; -698; 229; 16132; 2952
625; -489; -713; 232; 16170; 2937
632; -479; -699; 229; 16137; 2973
633; -479; -687; 223; 16166; 2926
628; -476; -676; 247; 16188; 2908
621; -481; -694; 313; 16209; 2957
619; -479; -702; 311; 16193; 2953
622; -485; -708; 249; 16177; 2946
619; -473; -698; 193; 16148; 2915
616; -483; -697; 209; 16162; 2928
619; -498; -686; 289; 16179; 2948
619; -490; -681; 324; 16208; 2961
637; -488; -696; 245; 16207; 2886
629; -472; -694; 258; 16172; 3002
625; -493; -714; 208; 16154; 2916
618; -483; -699; 190; 16177; 2908
623; -487; -696; 239; 16171; 2946
628; -477; -685; 277; 16182; 2954
618; -489; -692; 294; 16196; 2938
620; -477; -702; 261; 16168; 2946
626; -484; -702; 258; 16179; 2926
623; -493; -698; 256; 16169; 2946
619; -481; -705; 254; 16132; 2979
615; -482; -694; 197; 16189; 2881
617; -493; -693; 238; 16191; 2914
621; -499; -697; 296; 16172; 2964
633; -486; -696; 288; 16221; 2955
624; -482; -706; 247; 16196; 2928
618; -491; -707; 219; 16168; 2939
621; -483; -692; 184; 16170; 2894
619; -490; -676; 228; 16173; 2910
624; -503; -687; 307; 16199; 2947
620; -488; -700; 326; 16202; 2967
625; -473; -706; 223; 16166; 2921
619; -479; -705; 194; 16160; 2930
624; -487; -688; 248; 16164; 2961
636; -491; -678; 197; 16206; 2860
633; -499; -692; 351; 16186; 2913
603; -482; -714; 166; 16019; 3155
637; -448; -702; 46; 16222; 2750
628; -497; -680; 267; 16204; 2878
605; -498; -663; 392; 16087; 3108
636; -483; -678; 262; 16285; 2916
630; -476; -696; 260; 16224; 2915
611; -499; -716; 322; 16053; 3043
630; -479; -710; 196; 16208; 2871
615; -486; -694; 153; 16111; 2931
620; -494; -671; 260; 16158; 2959
634; -501; -675; 364; 16248; 2916
630; -487; -693; 296; 16162; 2994
622; -481; -703; 211; 16172; 2912
616; -481; -704; 206; 16184; 2903
612; -488; -691; 211; 16078; 2997
621; -482; -675; 208; 16210; 2891
617; -493; -671; 304; 16209; 2950
620; -506; -687; 353; 16129; 2982
626; -487; -700; 226; 16223; 2915
627; -489; -712; 184; 16146; 2944
616; -479; -694; 181; 16089; 2922
620; -479; -674; 236; 16192; 2893
627; -492; -679; 290; 16180; 2968
616; -486; -687; 319; 16211; 2942
623; -485; -690; 293; 16219; 2953
620; -475; -705; 225; 16139; 2956
618; -482; -705; 185; 16155; 2902
624; -493; -684; 214; 16165; 2944
620; -502; -678; 297; 16171; 2968
624; -490; -671; 310; 16222; 2919
622; -492; -698; 296; 16195; 2935
624; -481; -709; 242; 16156; 2950
623; -489; -714; 167; 16168; 2914
617; -482; -682; 197; 16184; 2950
617; -482; -677; 274; 16185; 2943
614; -489; -672; 304; 16209; 2953
622; -482; -681; 287; 16186; 2953
627; -478; -702; 243; 16187; 2926
622; -483; -699; 202; 16156; 2932
629; -479; -686; 197; 16143; 2937
620; -483; -675; 248; 16180; 2931
623; -487; -677; 299; 16191; 2944
621; -492; -691; 293; 16193; 2968
615; -487; -706; 242; 16192; 2915
623; -484; -708; 206; 16153; 2939
636; -526; -712; 182; 16169; 2918
621; -497; -681; 184; 16210; 2909
622; -503; -684; 282; 16194; 2938
628; -492; -695; 299; 16194; 2971
621; -480; -700; 269; 16193; 2939
621; -486; -701; 181; 16170; 2916
612; -490; -694; 159; 16165; 2895
602; -501; -671; 167; 16162; 2907
599; -519; -664; 209; 16157; 2932
599; -513; -647; 265; 16143; 2991
611; -498; -638; 362; 16140; 3061
635; -489; -652; 448; 16214; 3029
647; -453; -676; 389; 16229; 2988
648; -416; -685; 221; 16107; 2994
643; -410; -674; 59; 16091; 2903
655; -453; -653; 111; 16224; 2834
649; -491; -638; 330; 16240; 2885
624; -500; -657; 433; 16231; 3010
629; -482; -681; 286; 16229; 2917
624; -480; -709; 145; 16182; 2856
622; -497; -716; 212; 16124; 2952
628; -508; -701; 214; 16144; 2945
624; -498; -670; 211; 16158; 2909
620; -511; -666; 306; 16216; 2926
618; -506; -679; 371; 16206; 2982
623; -488; -697; 302; 16182; 2988
616; -475; -703; 178; 16201; 2840
619; -498; -702; 129; 16130; 2844
595; -495; -678; 161; 16136; 2944
595; -494; -639; 287; 16195; 2954
597; -507; -649; 378; 16141; 2999
602; -481; -657; 417; 16211; 3004
617; -466; -682; 310; 16169; 2982
632; -467; -689; 231; 16138; 2976
641; -464; -687; 158; 16121; 2925
637; -463; -662; 198; 16159; 2911
643; -482; -658; 294; 16219; 2931
632; -501; -671; 376; 16242; 2948
628; -491; -705; 335; 16212; 2956
624; -479; -708; 188; 16165; 2907
616; -473; -708; 91; 16107; 2888
615; -503; -672; 142; 16120; 2929
622; -510; -632; 280; 16166; 3014
619; -485; -623; 414; 16204; 2967
607; -484; -655; 390; 16222; 3018
611; -462; -679; 308; 16185; 2982
627; -469; -689; 200; 16177; 2901
621; -481; -694; 178; 16140; 2930
623; -480; -687; 213; 16183; 2913
619; -494; -677; 252; 16198; 2905
609; -510; -673; 308; 16204; 2943
614; -502; -681; 309; 16222; 2934
604; -495; -690; 277; 16152; 2986
605; -495; -690; 234; 16168; 2918
603; -485; -682; 209; 16161; 2920
603; -506; -672; 280; 16113; 3025
624; -522; -668; 283; 16168; 2947
621; -473; -660; 362; 16184; 2939
621; -465; -681; 300; 16178; 2946
620; -479; -686; 226; 16174; 2905
617; -490; -690; 195; 16149; 2917
612; -487; -675; 206; 16112; 2972
622; -501; -658; 274; 16225; 2904
617; -495; -658; 302; 16171; 2962
618; -509; -675; 346; 16151; 3028
619; -495; -678; 338; 16236; 2927
623; -485; -678; 275; 16155; 2940
629; -493; -684; 234; 16193; 2916
614; -493; -684; 210; 16142; 2910
616; -521; -670; 274; 16166; 2921
614; -495; -658; 339; 16231; 2984
605; -485; -661; 360; 16153; 2993
620; -486; -679; 339; 16182; 2980
620; -480; -688; 277; 16193; 2925
619; -464; -691; 197; 16116; 2953
636; -481; -676; 245; 16166; 2929
636; -495; -670; 287; 16218; 2905
613; -495; -682; 318; 16204; 2930
624; -504; -696; 293; 16222; 2891
620; -509; -704; 209; 16149; 2916
604; -515; -695; 200; 16090; 2968
625; -527; -671; 271; 16148; 2968
633; -531; -670; 369; 16199; 2991
632; -494; -672; 402; 16255; 2979
634; -464; -690; 333; 16221; 2888
608; -457; -715; 183; 16138; 2912
613; -479; -707; 146; 16115; 2930
619; -499; -681; 244; 16189; 2903
605; -514; -675; 370; 16216; 2959
609; -499; -688; 356; 16238; 2959
612; -485; -698; 301; 16157; 3018
619; -478; -698; 242; 16119; 2993
638; -472; -684; 219; 16155; 2920
633; -490; -669; 295; 16175; 2968
638; -492; -675; 355; 16238; 2930
626; -482; -691; 308; 16245; 2905
612; -488; -707; 182; 16128; 2936
608; -488; -696; 188; 16131; 2928
614; -498; -673; 225; 16135; 2939
628; -521; -659; 360; 16200; 2972
623; -493; -661; 392; 16252; 2921
626; -486; -678; 339; 16219; 2932
617; -494; -691; 272; 16145; 2991
620; -486; -696; 213; 16143; 2958
622; -487; -681; 226; 16162; 2935
622; -493; -677; 294; 16196; 2911
608; -495; -678; 386; 16207; 2990
619; -499; -697; 365; 16190; 2996
631; -471; -701; 271; 16183; 2946
628; -483; -704; 254; 16164; 2929
620; -490; -700; 215; 16173; 2922
613; -493; -680; 210; 16149; 2922
625; -518; -679; 293; 16209; 2897
615; -497; -681; 335; 16197; 2960
626; -489; -687; 390; 16183; 2994
623; -468; -703; 315; 16210; 2924
618; -460; -714; 233; 16153; 2906
621; -473; -704; 188; 16149; 2934
629; -487; -683; 225; 16156; 2900
617; -495; -666; 306; 16167; 2976
619; -489; -661; 350; 16197; 2972
618; -492; -682; 376; 16224; 2952
617; -472; -704; 304; 16199; 2944
616; -462; -714; 214; 16102; 2975
627; -476; -694; 207; 16178; 2901
634; -524; -702; 279; 16218; 2868
610; -495; -681; 330; 16139; 3000
610; -501; -696; 313; 16185; 2979
620; -492; -690; 357; 16180; 2995
623; -483; -710; 372; 16196; 2970
639; -472; -742; 412; 16247; 2984
635; -466; -765; 341; 16223; 2904
623; -449; -774; 81; 16095; 2869
610; -463; -732; -18; 16038; 2899
629; -500; -667; 162; 16141; 2892
629; -512; -640; 433; 16252; 2979
609; -497; -671; 515; 16267; 3039
611; -469; -723; 364; 16199; 2977
617; -447; -734; 142; 16111; 2959
631; -473; -710; 80; 16089; 2875
634; -496; -669; 236; 16111; 2956
644; -504; -649; 489; 16337; 2929
636; -494; -712; 576; 16353; 2958
630; -464; -786; 333; 16203; 2962
628; -468; -813; 52; 16091; 2897
620; -480; -764; -54; 15974; 2924
639; -506; -680; 35; 16016; 2976
655; -519; -609; 360; 16213; 2971
652; -500; -612; 560; 16322; 2993
662; -486; -679; 605; 16360; 2913
652; -459; -757; 291; 16256; 2872
622; -447; -782; -34; 16044; 2873
621; -504; -730; -149; 15995; 2826
614; -556; -628; 90; 15983; 2995
632; -551; -550; 542; 16289; 2996
625; -510; -588; 778; 16377; 3030
625; -447; -690; 548; 16302; 3022
628; -423; -763; 185; 16183; 2885
627; -439; -759; -40; 16020; 2861
635; -472; -686; 70; 16050; 2914
637; -499; -644; 380; 16277; 2903
626; -521; -671; 643; 16330; 3017
623; -477; -742; 508; 16273; 2969
612; -438; -797; 218; 16119; 2945
629; -439; -773; -38; 15882; 2925
650; -455; -666; -82; 16087; 2872
643; -498; -603; 163; 16165; 2892
648; -525; -590; 477; 16314; 2939
650; -492; -637; 499; 16383; 2873
650; -455; -704; 386; 16338; 2852
659; -447; -748; 132; 16123; 2845
657; -461; -714; 137; 16008; 3019
652; -502; -687; 384; 16125; 2989
633; -522; -701; 539; 16368; 2909
636; -502; -738; 560; 16246; 2928
641; -461; -723; 587; 16076; 2998
639; -439; -644; 523; 16392; 3143
604; -406; -659; 205; 16700; 2955
572; -398; -711; 16; 16899; 2945
